timestamps,ID,EDA,ACCx,ACCy,ACCz,EDA_zw,counter
0.0,121650,0.239465,-18.375,-7.9375,60.3125,0.9160900391467478,1
1.0,121650,0.2388245,-23.75,-6.65625,58.6875,0.9034648622743229,2
2.0,121650,0.23818425000000001,-26.84375,-5.59375,57.75,0.8908446132617238,3
3.0,121650,0.2365835,-22.4375,-4.71875,59.03125,0.8592915268003126,4
4.0,121650,0.235623,-24.8125,-3.09375,58.6875,0.840358689351501,5
5.0,121650,0.2343425,-24.0,-3.4375,59.0,0.8151181913263024,6
6.0,121650,0.237224,-24.0,-3.84375,59.0,0.8719167036727373,7
7.0,121650,0.2324215,-24.0,-3.90625,59.0,0.777252516428679,8
8.0,121650,0.2365835,-24.0,-3.9375,59.03125,0.8592915268003127,9
9.0,121650,0.23306174999999998,-24.0,-3.78125,59.0,0.7898727654412783,10
10.0,121650,0.2359435,-24.0,-3.9375,59.0,0.8466762056475386,11
11.0,121650,0.23306174999999998,-24.0,-3.9375,59.0,0.7898727654412783,12
12.0,121650,0.23498275,-24.0,-3.96875,59.0,0.8277384403389016,13
13.0,121650,0.2317815,-24.0,-4.0,59.0,0.7646371952759053,14
14.0,121650,0.23498275000000002,-24.0,-3.9375,59.0,0.8277384403389019,15
15.0,121650,0.23178125,-23.96875,-4.0,59.0,0.7646322674160799,16
16.0,121650,0.234022,-23.96875,-4.0,59.0,0.8088006750302648,17
17.0,121650,0.23210150000000002,-23.9375,-4.0,59.0,0.7709448558522922,18
18.0,121650,0.2327415,-24.0,-3.875,59.0,0.7835601770050662,19
19.0,121650,0.231461,-24.03125,-3.875,59.0,0.7583196789798676,20
20.0,121650,0.23338175,-23.90625,-4.0,59.0,0.7961804260176655,21
21.0,121650,0.23082075,-23.71875,-4.0,59.0,0.7456994299672682,22
22.0,121650,0.23178125,-23.90625,-4.0,59.0,0.7646322674160799,23
23.0,121650,0.23082075,-24.0,-4.0,59.0,0.7456994299672682,24
24.0,121650,0.2327415,-23.6875,-4.0,59.0,0.7835601770050662,25
25.0,121650,0.23306175,-23.96875,-3.96875,59.0,0.7898727654412785,26
26.0,121650,0.23210124999999998,-23.46875,-4.0625,59.0,0.7709399279924668,27
27.0,121650,0.231461,-23.53125,-4.125,59.0,0.7583196789798674,28
28.0,121650,0.231461,-23.6875,-4.0,59.0,0.7583196789798674,29
29.0,121650,0.2327415,-23.1875,-4.1875,59.0,0.7835601770050662,30
30.0,121650,0.23274175,-23.1875,-4.25,59.03125,0.7835651048648915,31
31.0,121650,0.23306174999999998,-23.15625,-4.21875,59.0,0.7898727654412784,32
32.0,121650,0.22986075,-23.53125,-4.0625,59.0,0.7267764482381074,33
33.0,121650,0.23274175,-23.09375,-4.375,59.0,0.7835651048648915,34
34.0,121650,0.2298605,-23.125,-4.3125,59.0,0.7267715203782821,35
35.0,121650,0.231461,-23.03125,-4.5625,59.0,0.7583196789798674,36
36.0,121650,0.22890025,-23.15625,-4.21875,59.0,0.7078436107892956,37
37.0,121650,0.23146125,-23.46875,-4.0625,59.0,0.7583246068396927,38
38.0,121650,0.22890025,-23.03125,-4.5625,59.0,0.7078436107892956,39
39.0,121650,0.23146125,-23.0,-4.59375,59.0,0.7583246068396927,40
40.0,121650,0.2295405,-23.03125,-4.625,59.0,0.720463859801895,41
41.0,121650,0.23050075,-23.25,-4.125,59.0,0.7393917693908811,42
42.0,121650,0.2289,-23.09375,-4.4375,59.0,0.7078386829294703,43
43.0,121650,0.2321015,-23.0,-4.75,59.0,0.7709448558522921,44
44.0,121650,0.2295405,-23.0,-4.71875,59.0625,0.720463859801895,45
45.0,121650,0.2324215,-23.03125,-4.5,59.0,0.777252516428679,46
46.0,121650,0.22954025,-23.4375,-4.09375,59.0,0.7204589319420698,47
47.0,121650,0.2324215,-23.0,-4.59375,59.0,0.777252516428679,48
48.0,121650,0.2301805,-23.1875,-4.59375,59.03125,0.7330791809546691,49
49.0,121650,0.23210124999999998,-24.0,-4.0,59.0,0.7709399279924668,50
50.0,121650,0.23050075,-23.96875,-4.0,59.0,0.7393917693908814,51
51.0,121650,0.2327415,-23.5625,-4.46875,59.0,0.7835601770050662,52
52.0,121650,0.2301805,-23.40625,-4.4375,59.0,0.7330791809546691,53
53.0,121650,0.23338175,-23.9375,-4.09375,59.03125,0.7961804260176654,54
54.0,121650,0.23210150000000002,-23.34375,-4.71875,59.0,0.7709448558522922,55
55.0,121650,0.2327415,-23.25,-4.65625,59.0625,0.7835601770050662,56
56.0,121650,0.2298605,-23.40625,-4.46875,59.03125,0.726771520378282,57
57.0,121650,0.22858,-23.4375,-4.3125,59.03125,0.7015310223530834,58
58.0,121650,0.22825975,-23.3125,-4.8125,59.0,0.6952184339168711,59
59.0,121650,0.22858,-23.0,-5.0,59.0,0.7015310223530834,60
60.0,121650,0.22825975,-21.9375,-4.875,59.71875,0.6952184339168711,61
61.0,121650,0.22954025,-30.96875,-9.09375,54.90625,0.7204589319420696,62
62.0,121650,0.22825975,-29.59375,-8.875,55.65625,0.6952184339168711,63
63.0,121650,0.23018075,-27.09375,-6.9375,57.53125,0.7330841088144944,64
64.0,121650,0.23082075,-23.625,-8.1875,58.53125,0.7456994299672681,65
65.0,121650,0.23050075,-21.09375,-9.5,59.09375,0.7393917693908812,66
66.0,121650,0.230821,-20.03125,-9.84375,59.34375,0.7457043578270935,67
67.0,121650,0.23082075,-19.71875,-10.0,59.5,0.7456994299672682,68
68.0,121650,0.23178125,-19.28125,-10.0625,59.78125,0.7646322674160798,69
69.0,121650,0.23114075,-19.0625,-9.90625,59.75,0.7520070905436552,70
70.0,121650,0.23242174999999998,-18.9375,-10.0,59.84375,0.7772574442885045,71
71.0,121650,0.23114125000000002,-19.0625,-10.0,59.84375,0.752016946263306,72
72.0,121650,0.23274175,-19.0,-10.0,59.9375,0.7835651048648915,73
73.0,121650,0.23210150000000002,-18.875,-10.0,59.96875,0.7709448558522922,74
74.0,121650,0.2346625,-18.84375,-10.03125,59.96875,0.8214258519026894,75
75.0,121650,0.23178125,-18.90625,-10.5,59.9375,0.7646322674160799,76
76.0,121650,0.23274175,-19.0,-10.0625,59.875,0.7835651048648915,77
77.0,121650,0.23114125000000002,-18.84375,-10.5625,59.75,0.752016946263306,78
78.0,121650,0.23434225,-18.875,-10.84375,59.84375,0.8151132634664771,79
79.0,121650,0.23178125,-19.0625,-10.21875,59.90625,0.7646322674160797,80
80.0,121650,0.23498275,-19.1875,-10.625,59.40625,0.8277384403389016,81
81.0,121650,0.23274175,-19.46875,-10.4375,59.5,0.7835651048648914,82
82.0,121650,0.2343425,-19.75,-10.125,59.375,0.8151181913263024,83
83.0,121650,0.23338175,-19.59375,-10.28125,59.5,0.7961804260176654,84
84.0,121650,0.2324215,-19.59375,-10.03125,59.5,0.7772525164286791,85
85.0,121650,0.233702,-19.75,-10.03125,59.53125,0.8024930144538777,86
86.0,121650,0.2327415,-19.75,-10.40625,59.3125,0.783560177005066,87
87.0,121650,0.2346625,-19.625,-10.4375,59.40625,0.8214258519026894,88
88.0,121650,0.23274175,-19.5625,-10.28125,59.5,0.7835651048648915,89
89.0,121650,0.233702,-19.6875,-10.4375,59.375,0.8024930144538777,90
90.0,121650,0.23306149999999998,-19.5,-10.90625,59.4375,0.789867837581453,91
91.0,121650,0.234022,-19.84375,-10.8125,59.25,0.8088006750302648,92
92.0,121650,0.23402225,-19.875,-10.1875,59.34375,0.8088056028900901,93
93.0,121650,0.2385045,-19.59375,-10.6875,59.3125,0.8971572016979359,94
94.0,121650,0.23434225,-19.90625,-10.90625,59.15625,0.8151132634664771,95
95.0,121650,0.23306174999999998,-19.90625,-10.4375,59.1875,0.7898727654412783,96
96.0,121650,0.23530275,-19.9375,-10.96875,59.15625,0.8340461009152887,97
97.0,121650,0.23338175,-19.90625,-11.0,59.09375,0.7961804260176654,98
98.0,121650,0.23498249999999998,-19.8125,-10.75,59.28125,0.8277335124790763,99
99.0,121650,0.23370225,-19.90625,-10.8125,59.25,0.802497942313703,100
100.0,121650,0.23530299999999998,-19.375,-11.0,59.21875,0.834051028775114,101
101.0,121650,0.23626324999999998,-19.40625,-10.46875,59.46875,0.8529789383641002,102
102.0,121650,0.23530275,-19.6875,-10.78125,59.40625,0.8340461009152887,103
103.0,121650,0.2340225,-20.59375,-10.53125,59.0,0.8088105307499154,104
104.0,121650,0.240105,-20.65625,-10.15625,59.09375,0.9287053602995216,105
105.0,121650,0.23498275,-20.46875,-10.5625,59.0,0.8277384403389018,106
106.0,121650,0.23562325,-20.0625,-10.90625,59.125,0.8403636172113264,107
107.0,121650,0.2369035,-20.03125,-10.9375,59.125,0.8655991873766997,108
108.0,121650,0.2362635,-20.0625,-10.84375,59.0,0.8529838662239255,109
109.0,121650,0.23498275,-19.9375,-10.96875,59.28125,0.8277384403389016,110
110.0,121650,0.23402225,-19.9375,-10.96875,59.125,0.8088056028900901,111
111.0,121650,0.23562325,-19.9375,-11.0,59.15625,0.8403636172113264,112
112.0,121650,0.2343425,-19.875,-11.0,59.28125,0.8151181913263024,113
113.0,121650,0.23690375,-19.6875,-11.0,59.03125,0.865604115236525,114
114.0,121650,0.233702,-19.96875,-11.0,59.125,0.8024930144538778,115
115.0,121650,0.237224,-19.75,-11.0,59.25,0.8719167036727373,116
116.0,121650,0.2346625,-20.03125,-11.0,59.03125,0.8214258519026894,117
117.0,121650,0.235623,-20.15625,-10.96875,59.0,0.840358689351501,118
118.0,121650,0.2340225,-20.15625,-11.0,59.0,0.8088105307499154,119
119.0,121650,0.2365835,-20.40625,-11.0,59.03125,0.8592915268003127,120
120.0,121650,0.23530299999999998,-20.71875,-10.71875,59.125,0.8340510287751141,121
121.0,121650,0.23530299999999998,-20.53125,-10.90625,59.0625,0.8340510287751141,122
122.0,121650,0.23658375,-20.28125,-10.6875,59.09375,0.859296454660138,123
123.0,121650,0.2340225,-19.96875,-10.96875,59.0625,0.8088105307499154,124
124.0,121650,0.23626325,-20.03125,-11.0,59.0,0.8529789383641004,125
125.0,121650,0.23530275,-20.09375,-11.0,59.03125,0.8340461009152887,126
126.0,121650,0.23690375,-20.09375,-11.0,59.03125,0.865604115236525,127
127.0,121650,0.233702,-20.1875,-10.90625,59.15625,0.8024930144538777,128
128.0,121650,0.2343425,-20.1875,-11.0,59.03125,0.8151181913263024,129
129.0,121650,0.2343425,-20.125,-11.0,59.03125,0.8151181913263024,130
130.0,121650,0.235623,-20.15625,-11.0,59.03125,0.840358689351501,131
131.0,121650,0.23402225,-20.25,-11.0,59.125,0.8088056028900901,132
132.0,121650,0.23466275,-20.25,-11.0,59.03125,0.8214307797625147,133
133.0,121650,0.23498275,-20.125,-10.96875,59.0625,0.8277384403389016,134
134.0,121650,0.2327415,-20.03125,-11.0,59.03125,0.783560177005066,135
135.0,121650,0.235623,-20.09375,-11.0,59.0,0.840358689351501,136
136.0,121650,0.23338175,-20.0,-11.0,59.0625,0.7961804260176654,137
137.0,121650,0.23434225,-20.4375,-11.03125,59.0,0.8151132634664771,138
138.0,121650,0.235623,-21.3125,-10.90625,58.96875,0.840358689351501,139
139.0,121650,0.23338199999999998,-20.0625,-10.875,59.15625,0.7961853538774907,140
140.0,121650,0.23626350000000002,-20.0625,-11.0,59.0,0.8529838662239257,141
141.0,121650,0.23338199999999998,-20.84375,-10.71875,59.03125,0.7961853538774907,142
142.0,121650,0.2365835,-20.25,-11.15625,59.0625,0.8592915268003127,143
143.0,121650,0.2343425,-20.71875,-11.03125,59.0,0.8151181913263024,144
144.0,121650,0.2346625,-20.75,-11.0,59.0,0.8214258519026894,145
145.0,121650,0.23530299999999998,-21.03125,-11.0,58.9375,0.8340510287751141,146
146.0,121650,0.23498249999999998,-21.25,-11.0,59.0,0.8277335124790764,147
147.0,121650,0.2359435,-21.15625,-10.96875,58.875,0.8466762056475386,148
148.0,121650,0.2343425,-21.1875,-10.8125,58.96875,0.8151181913263024,149
149.0,121650,0.23658375,-21.90625,-11.0,58.9375,0.859296454660138,150
150.0,121650,0.23466275,-21.65625,-11.0,58.84375,0.8214307797625147,151
151.0,121650,0.2365835,-21.8125,-10.84375,58.9375,0.8592915268003127,152
152.0,121650,0.235623,-21.90625,-10.125,59.03125,0.8403586893515012,153
153.0,121650,0.23626325,-21.3125,-11.15625,58.71875,0.8529789383641004,154
154.0,121650,0.23754375,-21.5,-11.0,58.9375,0.8782194363892991,155
155.0,121650,0.2343425,-22.3125,-10.78125,58.59375,0.8151181913263024,156
156.0,121650,0.235623,-28.28125,-7.34375,56.34375,0.840358689351501,157
157.0,121650,0.2849245,-26.8125,-4.71875,57.90625,1.8121622140600757,158
158.0,121650,0.3025325,-25.34375,-3.875,58.1875,2.1592412372757708,159
159.0,121650,0.271799,-41.5625,-4.15625,48.34375,1.553439717512052,160
160.0,121650,0.258353,-54.5625,-1.75,34.78125,1.2883997046679903,161
161.0,121650,0.25451124999999997,-55.21875,-1.9375,33.75,1.212673282732569,162
162.0,121650,0.2506695,-54.96875,-2.6875,34.125,1.1369468607971482,163
163.0,121650,0.24970925,-55.0,-2.78125,34.0,1.118018951208162,164
164.0,121650,0.24778875,-55.0,-2.9375,34.0,1.0801631320301894,165
165.0,121650,0.244587,-55.0,-3.0,34.0,1.017052031247542,166
166.0,121650,0.24586775,-55.0,-3.0,34.0,1.042297457132566,167
167.0,121650,0.24490699999999999,-54.90625,-3.0,34.0625,1.0233596918239292,168
168.0,121650,0.2436265,-54.96875,-3.0,34.03125,0.9981191937987304,169
169.0,121650,0.24234575,-55.0,-3.0,34.03125,0.9728737679137063,170
170.0,121650,0.2410655,-54.96875,-3.0,34.03125,0.9476381977483332,171
171.0,121650,0.24330649999999998,-55.34375,-2.65625,33.3125,0.9918115332223433,172
172.0,121650,0.24106524999999998,-57.4375,-2.875,29.75,0.9476332698885076,173
173.0,121650,0.2436265,-56.65625,-2.65625,31.09375,0.9981191937987304,174
174.0,121650,0.2417055,-63.0625,-4.90625,11.875,0.960253518901107,175
175.0,121650,0.24266625,-64.1875,-7.28125,5.6875,0.9791912842097441,176
176.0,121650,0.249069,-64.3125,-7.34375,6.65625,1.1053987021955627,177
177.0,121650,0.2413855,-63.96875,-7.03125,7.84375,0.9539458583247201,178
178.0,121650,0.242346,-63.96875,-7.0,8.78125,0.9728786957735316,179
179.0,121650,0.240105,-64.0,-7.0,9.0,0.9287053602995216,180
180.0,121650,0.23946475,-61.4375,-7.25,16.28125,0.9160851112869222,181
181.0,121650,0.24170575,-24.0,-9.09375,57.28125,0.9602584467609325,182
182.0,121650,0.2436265,-16.53125,-10.90625,60.09375,0.9981191937987304,183
183.0,121650,0.24394675,-16.96875,-11.3125,60.03125,1.0044317822349427,184
184.0,121650,0.24106524999999998,-16.75,-11.3125,60.0,0.9476332698885076,185
185.0,121650,0.2452275,-15.15625,-11.90625,60.3125,1.0296772081199665,186
186.0,121650,0.24234575,-16.65625,-11.28125,60.0625,0.9728737679137063,187
187.0,121650,0.24394675,-17.375,-11.5625,59.9375,1.0044317822349427,188
188.0,121650,0.24330649999999998,-18.09375,-11.875,59.6875,0.9918115332223434,189
189.0,121650,0.24362675,-17.59375,-11.1875,59.9375,0.9981241216585557,190
190.0,121650,0.24490725,-17.21875,-11.625,59.96875,1.0233646196837545,191
191.0,121650,0.24298625,-16.96875,-12.0,59.96875,0.985498944786131,192
192.0,121650,0.24522725,-17.03125,-12.0,60.0,1.0296722802601415,193
193.0,121650,0.2429865,-16.875,-12.03125,60.03125,0.9855038726459563,194
194.0,121650,0.2449075,-16.71875,-12.03125,59.96875,1.0233695475435796,195
195.0,121650,0.24234575,-16.71875,-12.0,60.0,0.9728737679137063,196
196.0,121650,0.24298625,-16.59375,-12.0,60.0,0.985498944786131,197
197.0,121650,0.24330649999999998,-16.9375,-12.0,60.0,0.9918115332223434,198
198.0,121650,0.24362675,-17.09375,-12.03125,60.0,0.9981241216585558,199
199.0,121650,0.24394675,-17.0,-12.0,60.0,1.0044317822349427,200
200.0,121650,0.24138525,-16.9375,-12.0,60.0,0.9539409304648947,201
201.0,121650,0.24330625,-17.03125,-12.1875,59.84375,0.991806605362518,202
202.0,121650,0.24234575,-17.125,-11.96875,60.03125,0.9728737679137064,203
203.0,121650,0.24522725,-17.0625,-12.1875,59.9375,1.0296722802601415,204
204.0,121650,0.24330625,-18.0,-11.78125,59.75,0.9918066053625181,205
205.0,121650,0.24106525,-18.0,-11.96875,59.6875,0.9476332698885077,206
206.0,121650,0.2413855,-18.0,-12.0,59.75,0.9539458583247201,207
207.0,121650,0.239785,-17.875,-12.0,59.84375,0.9223976997231347,208
208.0,121650,0.24234575,-17.75,-12.0,59.90625,0.9728737679137064,209
209.0,121650,0.2413855,-17.65625,-12.0,59.875,0.9539458583247201,210
210.0,121650,0.24330625,-17.53125,-12.0,59.8125,0.991806605362518,211
211.0,121650,0.242666,-17.71875,-12.0,59.9375,0.9791863563499187,212
212.0,121650,0.24298625,-17.53125,-12.0,59.8125,0.985498944786131,213
213.0,121650,0.24330625,-18.125,-12.0,59.5625,0.991806605362518,214
214.0,121650,0.24298599999999998,-18.53125,-12.0,59.40625,0.9854940169263057,215
215.0,121650,0.24490725,-17.8125,-12.625,59.59375,1.0233646196837545,216
216.0,121650,0.24234575,-18.875,-12.1875,59.40625,0.9728737679137063,217
217.0,121650,0.244587,-19.3125,-12.21875,59.21875,1.017052031247542,218
218.0,121650,0.242666,-18.34375,-12.125,59.53125,0.9791863563499187,219
219.0,121650,0.24362625,-17.75,-12.28125,59.53125,0.9981142659389051,220
220.0,121650,0.24234575,-17.9375,-12.375,59.65625,0.9728737679137063,221
221.0,121650,0.24362675,-18.125,-12.03125,59.5,0.9981241216585557,222
222.0,121650,0.242666,-18.25,-12.0,59.53125,0.9791863563499186,223
223.0,121650,0.24298625,-18.46875,-12.03125,59.46875,0.985498944786131,224
224.0,121650,0.24330625,-18.59375,-12.0,59.34375,0.9918066053625181,225
225.0,121650,0.242666,-18.5625,-12.0,59.4375,0.9791863563499187,226
226.0,121650,0.244587,-19.03125,-12.21875,59.4375,1.017052031247542,227
227.0,121650,0.242666,-18.84375,-12.0,59.375,0.9791863563499187,228
228.0,121650,0.24586750000000002,-18.8125,-12.09375,59.5,1.0422925292727407,229
229.0,121650,0.243947,-20.15625,-11.9375,59.0625,1.004436710094768,230
230.0,121650,0.24330649999999998,-20.59375,-12.0,59.0,0.9918115332223433,231
231.0,121650,0.244587,-20.53125,-11.90625,59.03125,1.017052031247542,232
232.0,121650,0.24330649999999998,-21.90625,-10.15625,58.9375,0.9918115332223434,233
233.0,121650,0.24458725,-22.46875,-9.8125,58.9375,1.0170569591073673,234
234.0,121650,0.2429865,-22.03125,-10.25,58.84375,0.9855038726459563,235
235.0,121650,0.2452275,-21.96875,-10.875,58.8125,1.0296772081199665,236
236.0,121650,0.24586724999999998,-21.71875,-10.59375,58.875,1.042287601412915,237
237.0,121650,0.244267,-21.0,-11.0,58.96875,1.010744370671155,238
238.0,121650,0.24362675,-21.4375,-11.09375,58.78125,0.9981241216585557,239
239.0,121650,0.2436265,-21.65625,-11.0,58.90625,0.9981191937987304,240
240.0,121650,0.2455475,-21.5,-11.03125,58.875,1.0359848686963538,241
241.0,121650,0.24426675,-21.375,-11.0625,58.875,1.0107394428113297,242
242.0,121650,0.244587,-21.3125,-11.0625,58.84375,1.017052031247542,243
243.0,121650,0.24426675,-21.28125,-11.0,58.96875,1.0107394428113297,244
244.0,121650,0.246508,-21.125,-11.0,58.9375,1.0549177061451656,245
245.0,121650,0.24330649999999998,-21.0625,-11.34375,58.9375,0.9918115332223433,246
246.0,121650,0.24426675,-21.0,-11.78125,58.90625,1.0107394428113297,247
247.0,121650,0.24618774999999998,-21.09375,-11.28125,58.96875,1.0486051177089528,248
248.0,121650,0.244587,-21.09375,-11.65625,58.875,1.017052031247542,249
249.0,121650,0.24202574999999998,-21.71875,-12.0,58.4375,0.9665661073373195,250
250.0,121650,0.24394675,-21.90625,-11.90625,58.375,1.0044317822349427,251
251.0,121650,0.2413855,-21.90625,-11.1875,58.65625,0.9539458583247202,252
252.0,121650,0.24266574999999999,-23.40625,-10.3125,58.25,0.9791814284900934,253
253.0,121650,0.24074525,-22.09375,-11.0,58.5625,0.941325609312121,254
254.0,121650,0.240425,-21.90625,-11.0,58.78125,0.9350130208759087,255
255.0,121650,0.2413855,-22.0,-11.0,58.71875,0.9539458583247201,256
256.0,121650,0.2394645,-21.78125,-11.0,58.8125,0.9160801834270971,257
257.0,121650,0.24138549999999998,-21.4375,-11.125,59.0,0.95394585832472,258
258.0,121650,0.240425,-21.59375,-11.0,58.96875,0.9350130208759087,259
259.0,121650,0.24202574999999998,-21.1875,-11.46875,58.90625,0.9665661073373193,260
260.0,121650,0.2388245,-21.0625,-11.9375,59.0,0.903464862274323,261
261.0,121650,0.24042524999999998,-21.125,-11.875,58.875,0.9350179487357337,262
262.0,121650,0.23882475,-21.0625,-11.6875,58.9375,0.9034697901341484,263
263.0,121650,0.23914475,-21.125,-11.96875,58.875,0.9097774507105352,264
264.0,121650,0.2394645,-21.0,-12.0,58.90625,0.9160801834270969,265
265.0,121650,0.2388245,-21.0,-12.0,58.9375,0.903464862274323,266
266.0,121650,0.24298625,-21.34375,-11.9375,58.71875,0.985498944786131,267
267.0,121650,0.2385045,-21.375,-12.0,58.78125,0.8971572016979359,268
268.0,121650,0.24042525,-21.3125,-12.0,58.78125,0.9350179487357339,269
269.0,121650,0.23818425,-21.15625,-12.0,58.71875,0.8908446132617236,270
270.0,121650,0.24010474999999998,-21.8125,-11.625,58.6875,0.9287004324396961,271
271.0,121650,0.23850425,-21.625,-11.8125,58.75,0.8971522738381107,272
272.0,121650,0.239465,-21.375,-12.0,58.875,0.9160900391467478,273
427.0,121650,0.247148,-25.9375,-4.8125,58.0,1.0675330272979393,274
428.0,121650,0.2452275,-41.5625,-6.78125,47.15625,1.0296772081199665,275
429.0,121650,0.24586750000000002,-52.53125,-11.9375,29.625,1.0422925292727407,276
430.0,121650,0.263795,-62.6875,-13.75,2.8125,1.395669357345172,277
431.0,121650,0.24202574999999998,-62.3125,-15.71875,-7.90625,0.9665661073373193,278
432.0,121650,0.24106525,-62.0,-16.6875,-9.96875,0.9476332698885078,279
433.0,121650,0.2410655,-61.78125,-17.03125,-10.8125,0.9476381977483332,280
434.0,121650,0.24522725,-61.5625,-17.3125,-10.875,1.0296722802601415,281
435.0,121650,0.2436265,-61.59375,-17.3125,-10.96875,0.9981191937987305,282
436.0,121650,0.240425,-61.40625,-17.53125,-11.0,0.9350130208759087,283
437.0,121650,0.242666,-61.46875,-17.59375,-11.125,0.9791863563499187,284
438.0,121650,0.240105,-61.5625,-17.5625,-11.15625,0.9287053602995216,285
439.0,121650,0.24234575,-61.375,-17.71875,-11.15625,0.9728737679137064,286
440.0,121650,0.24042525,-61.375,-17.71875,-11.0,0.9350179487357341,287
441.0,121650,0.242666,-61.28125,-17.9375,-11.09375,0.9791863563499188,288
442.0,121650,0.2413855,-61.40625,-17.96875,-11.09375,0.9539458583247201,289
443.0,121650,0.24266625,-61.25,-18.0,-11.03125,0.9791912842097441,290
444.0,121650,0.24266625,-61.21875,-18.0,-11.03125,0.9791912842097441,291
445.0,121650,0.24298625,-61.28125,-18.0,-11.0,0.985498944786131,292
446.0,121650,0.24202574999999998,-61.15625,-18.0,-11.03125,0.9665661073373195,293
447.0,121650,0.2410655,-61.1875,-18.0,-11.0,0.9476381977483332,294
448.0,121650,0.2413855,-61.0625,-18.0,-11.0,0.9539458583247201,295
449.0,121650,0.2391445,-61.09375,-18.0,-11.0,0.9097725228507101,296
450.0,121650,0.24202574999999998,-61.53125,-18.96875,-9.9375,0.9665661073373193,297
451.0,121650,0.236904,-31.5625,-37.34375,20.8125,0.8656090430963503,298
452.0,121650,0.242026,16.8125,-58.5,15.8125,0.9665710351971447,299
453.0,121650,0.25387099999999996,14.1875,-58.25,18.15625,1.2000530337199697,300
454.0,121650,0.258033,14.75,-57.0,21.59375,1.2820920440916035,301
455.0,121650,0.2570725,15.65625,-56.34375,22.46875,1.2631592066427917,302
456.0,121650,0.25771275,15.5625,-56.0,22.96875,1.275779455655391,303
457.0,121650,0.25547175,15.46875,-56.0,23.40625,1.2316061201813813,304
458.0,121650,0.255792,14.96875,-56.03125,23.96875,1.2379187086175931,305
459.0,121650,0.25259025,14.875,-55.96875,23.9375,1.1748076078349459,306
460.0,121650,0.254511,15.125,-56.0,24.0,1.2126683548727437,307
461.0,121650,0.2525905,15.8125,-56.0,23.34375,1.1748125356947714,308
462.0,121650,0.2529105,15.75,-55.84375,23.78125,1.181120196271158,309
463.0,121650,0.25066974999999997,13.46875,-56.3125,23.96875,1.1369517886569733,310
464.0,121650,0.25098975,11.40625,-56.15625,25.28125,1.1432594492333605,311
465.0,121650,0.25163,11.5,-56.0,25.9375,1.1558796982459598,312
466.0,121650,0.2506695,11.84375,-56.0,25.78125,1.136946860797148,313
467.0,121650,0.25323075,11.90625,-56.0,25.84375,1.1874327847073711,314
468.0,121650,0.25130975,11.46875,-56.0,25.875,1.149567109809747,315
469.0,121650,0.25291050000000004,11.21875,-56.0,25.96875,1.1811201962711588,316
470.0,121650,0.248749,11.1875,-56.0,26.0,1.0990910416191757,317
471.0,121650,0.25130975,11.25,-56.0,26.0,1.1495671098097475,318
472.0,121650,0.24970925,11.53125,-56.0,25.9375,1.1180189512081617,319
473.0,121650,0.24842875,11.0,-56.0,25.96875,1.0927784531829632,320
474.0,121650,0.2471485,11.0625,-56.0,25.90625,1.0675428830175901,321
475.0,121650,0.24842875,11.03125,-56.0,25.9375,1.0927784531829632,322
476.0,121650,0.24810875,11.4375,-56.03125,25.5625,1.0864707926065762,323
477.0,121650,0.2471485,11.3125,-56.0625,25.4375,1.0675428830175901,324
478.0,121650,0.248749,10.9375,-55.78125,26.625,1.0990910416191757,325
479.0,121650,0.24458675,10.0625,-55.1875,27.8125,1.0170471033877169,326
480.0,121650,0.24586750000000002,9.65625,-55.09375,28.03125,1.0422925292727407,327
481.0,121650,0.2420255,9.84375,-55.125,28.0,0.966561179477494,328
482.0,121650,0.242346,9.90625,-55.0625,27.96875,0.972878695773532,329
483.0,121650,0.242666,9.9375,-55.0,28.0,0.9791863563499188,330
484.0,121650,0.24074525,9.78125,-55.03125,27.90625,0.941325609312121,331
485.0,121650,0.24298599999999998,9.9375,-55.125,27.9375,0.9854940169263058,332
486.0,121650,0.24202575,10.0,-55.21875,27.71875,0.9665661073373196,333
487.0,121650,0.24170575,10.1875,-55.46875,27.25,0.9602584467609323,334
488.0,121650,0.23914475000000002,-19.875,-30.96875,43.65625,0.9097774507105353,335
489.0,121650,0.24490725,-29.40625,-11.71875,55.375,1.0233646196837543,336
490.0,121650,0.242666,-28.78125,-9.78125,56.03125,0.9791863563499187,337
491.0,121650,0.2449075,-26.1875,-7.84375,57.6875,1.0233695475435796,338
492.0,121650,0.24202574999999998,-28.0,-5.1875,57.28125,0.9665661073373193,339
493.0,121650,0.24330625,-16.09375,-4.21875,60.8125,0.991806605362518,340
494.0,121650,0.2417055,-20.75,-7.46875,59.5625,0.960253518901107,341
495.0,121650,0.244267,-18.0625,-8.75,60.1875,1.010744370671155,342
496.0,121650,0.24298599999999998,-17.125,-9.09375,60.28125,0.9854940169263057,343
497.0,121650,0.24298625,-16.03125,-9.375,60.8125,0.985498944786131,344
498.0,121650,0.2436265,-16.59375,-9.5,60.53125,0.9981191937987304,345
499.0,121650,0.24490725,-16.375,-9.78125,60.6875,1.0233646196837545,346
500.0,121650,0.24330625,-16.40625,-9.75,60.59375,0.991806605362518,347
501.0,121650,0.2429865,-16.78125,-9.8125,60.375,0.9855038726459563,348
502.0,121650,0.24490725,-17.0,-9.96875,60.1875,1.0233646196837545,349
503.0,121650,0.240745,-16.96875,-9.78125,60.3125,0.9413206814522953,350
504.0,121650,0.2452275,-16.90625,-10.0,60.21875,1.0296772081199668,351
505.0,121650,0.24234575,-17.21875,-9.9375,60.21875,0.9728737679137064,352
506.0,121650,0.2436265,-17.40625,-9.9375,60.21875,0.9981191937987304,353
507.0,121650,0.244587,-17.1875,-10.0,60.0625,1.017052031247542,354
508.0,121650,0.2436265,-17.03125,-10.0,60.125,0.9981191937987304,355
509.0,121650,0.244267,-17.0625,-10.0,60.0625,1.010744370671155,356
510.0,121650,0.24330649999999998,-17.15625,-10.0,60.0,0.9918115332223434,357
511.0,121650,0.24874875,-17.21875,-10.3125,60.21875,1.0990861137593502,358
512.0,121650,0.24298625,-17.125,-10.3125,60.03125,0.985498944786131,359
513.0,121650,0.24586750000000002,-17.40625,-10.28125,60.0,1.0422925292727407,360
514.0,121650,0.24714824999999999,-17.5,-10.09375,60.0625,1.0675379551577646,361
515.0,121650,0.24554725,-17.625,-10.09375,60.0,1.0359799408365284,362
516.0,121650,0.24490725,-17.4375,-10.4375,60.0,1.0233646196837545,363
517.0,121650,0.24490699999999999,-17.375,-10.5,60.03125,1.023359691823929,364
518.0,121650,0.2461875,-17.3125,-10.25,60.0,1.048600189849128,365
519.0,121650,0.24490725,-17.0625,-11.09375,60.0625,1.0233646196837545,366
520.0,121650,0.246828,-17.125,-11.0,60.0,1.0612253667215525,367
521.0,121650,0.24426675,-17.6875,-11.0,59.9375,1.0107394428113297,368
522.0,121650,0.2455475,-19.5625,-9.65625,59.71875,1.0359848686963538,369
523.0,121650,0.24554725,-19.6875,-9.96875,59.5,1.0359799408365284,370
524.0,121650,0.246828,-19.90625,-10.0,59.375,1.0612253667215525,371
525.0,121650,0.244587,-19.84375,-10.0,59.46875,1.017052031247542,372
526.0,121650,0.24554725,-19.875,-10.0,59.34375,1.0359799408365284,373
527.0,121650,0.2461875,-19.65625,-10.40625,59.34375,1.048600189849128,374
528.0,121650,0.24586750000000002,-19.5625,-10.8125,59.28125,1.0422925292727407,375
529.0,121650,0.246508,-20.46875,-10.15625,59.0625,1.0549177061451656,376
530.0,121650,0.24522725,-21.0625,-10.0,59.03125,1.0296722802601415,377
531.0,121650,0.2474685,-21.5,-10.0,58.96875,1.0738505435939771,378
532.0,121650,0.24522725,-21.46875,-9.96875,58.96875,1.0296722802601415,379
533.0,121650,0.24906899999999998,-21.625,-9.90625,59.0625,1.1053987021955625,380
534.0,121650,0.24682825,-21.75,-10.0,59.0,1.0612302945813776,381
535.0,121650,0.2474685,-21.71875,-9.9375,59.03125,1.0738505435939771,382
536.0,121650,0.2455475,-21.65625,-10.0,59.0,1.0359848686963535,383
537.0,121650,0.2481085,-21.5,-10.0,59.0,1.0864658647467507,384
538.0,121650,0.2458675,-21.53125,-10.0,59.0,1.0422925292727405,385
539.0,121650,0.2477885,-21.5625,-9.96875,59.0,1.080158204170364,386
540.0,121650,0.246828,-21.8125,-9.90625,59.0,1.0612253667215525,387
541.0,121650,0.2481085,-21.90625,-10.0,59.0,1.0864658647467507,388
542.0,121650,0.246508,-21.71875,-10.0,59.0,1.0549177061451653,389
543.0,121650,0.24746825,-22.0,-9.96875,58.84375,1.0738456157341516,390
544.0,121650,0.2477885,-22.125,-9.9375,58.90625,1.080158204170364,391
545.0,121650,0.24938924999999998,-22.09375,-9.84375,58.84375,1.1117112906317748,392
546.0,121650,0.24810875,-22.0,-9.96875,58.96875,1.0864707926065762,393
547.0,121650,0.24938924999999998,-21.875,-9.96875,58.96875,1.1117112906317748,394
548.0,121650,0.24650825,-22.0,-9.875,59.0,1.0549226340049906,395
549.0,121650,0.2500295,-21.9375,-9.96875,59.0,1.124331539644374,396
550.0,121650,0.2474685,-21.78125,-9.96875,59.0,1.073850543593977,397
551.0,121650,0.2484285,-21.90625,-10.03125,58.9375,1.0927735253231377,398
552.0,121650,0.24586750000000002,-21.8125,-9.5625,59.0,1.0422925292727407,399
553.0,121650,0.2481085,-21.90625,-9.96875,59.0,1.086465864746751,400
554.0,121650,0.248429,-21.90625,-9.9375,59.0,1.0927833810427885,401
555.0,121650,0.2500295,-22.03125,-9.65625,59.0,1.124331539644374,402
556.0,121650,0.24874875,-22.0,-9.03125,59.0,1.0990861137593502,403
557.0,121650,0.25034975,-22.28125,-9.125,58.9375,1.1306441280805863,404
558.0,121650,0.249389,-22.03125,-9.09375,59.0,1.1117063627719497,405
559.0,121650,0.248749,-22.03125,-9.46875,59.0,1.0990910416191755,406
560.0,121650,0.24906899999999998,-22.0625,-9.0625,59.0,1.1053987021955622,407
561.0,121650,0.24938925,-22.03125,-9.34375,59.0,1.1117112906317748,408
562.0,121650,0.24938925,-22.0,-9.53125,59.0,1.1117112906317748,409
563.0,121650,0.2481085,-22.03125,-9.5,59.0,1.086465864746751,410
564.0,121650,0.2503495,-22.03125,-9.0625,59.0,1.1306392002207613,411
565.0,121650,0.2481085,-22.1875,-9.34375,58.78125,1.086465864746751,412
566.0,121650,0.25195,-21.1875,-9.9375,59.0625,1.1621873588223468,413
567.0,121650,0.249069,-21.90625,-9.53125,58.96875,1.105398702195563,414
568.0,121650,0.24906875,-21.96875,-9.65625,59.0,1.1053937743357372,415
569.0,121650,0.24906899999999998,-22.0,-10.0,59.0,1.1053987021955627,416
570.0,121650,0.24906899999999998,-21.90625,-9.25,59.0,1.1053987021955627,417
571.0,121650,0.24970925,-21.9375,-9.78125,59.0,1.1180189512081617,418
572.0,121650,0.24906875,-21.9375,-9.90625,59.0,1.1053937743357372,419
573.0,121650,0.2503495,-21.78125,-9.59375,58.96875,1.1306392002207613,420
574.0,121650,0.24746825,-21.71875,-9.65625,59.0,1.0738456157341518,421
575.0,121650,0.25163025,-21.78125,-9.96875,59.0,1.1558846261057851,422
576.0,121650,0.24650825,-21.65625,-9.90625,58.96875,1.0549226340049906,423
577.0,121650,0.24906899999999998,-21.84375,-9.71875,59.0,1.1053987021955622,424
578.0,121650,0.2474685,-21.8125,-10.0,59.0,1.073850543593977,425
579.0,121650,0.2481085,-21.78125,-10.0,59.0,1.0864658647467509,426
580.0,121650,0.249389,-21.78125,-9.8125,59.0,1.1117063627719497,427
581.0,121650,0.248749,-21.78125,-9.9375,58.9375,1.0990910416191757,428
582.0,121650,0.26187475,-3.96875,-17.3125,56.65625,1.3578184660270245,429
583.0,121650,0.26827725,-5.0,-18.21875,53.3125,1.4840209561530178,430
584.0,121650,0.2503495,-42.5625,-4.96875,47.4375,1.130639200220761,431
585.0,121650,0.25130975,-46.6875,-11.1875,42.6875,1.1495671098097475,432
586.0,121650,0.25163025,-47.625,-10.3125,42.0,1.1558846261057851,433
587.0,121650,0.25195,-47.21875,-9.15625,42.875,1.1621873588223468,434
588.0,121650,0.24938925,-46.0625,-9.46875,43.84375,1.111711290631775,435
589.0,121650,0.25130975,-46.65625,-9.5625,43.34375,1.1495671098097473,436
590.0,121650,0.25066975,-46.96875,-9.5,43.0,1.1369517886569738,437
591.0,121650,0.25130975,-46.78125,-9.5,43.0,1.1495671098097473,438
592.0,121650,0.25066974999999997,-46.65625,-9.59375,43.15625,1.1369517886569733,439
593.0,121650,0.2503495,-46.8125,-9.5625,43.15625,1.130639200220761,440
594.0,121650,0.25195025000000004,-46.78125,-9.375,43.125,1.1621922866821723,441
595.0,121650,0.25099000000000005,-46.84375,-9.5625,43.0625,1.1432643770931863,442
596.0,121650,0.25163,-48.375,-9.75,41.375,1.1558796982459598,443
597.0,121650,0.25163,-48.96875,-10.0,41.0,1.1558796982459598,444
598.0,121650,0.2503495,-48.625,-10.0,41.0625,1.130639200220761,445
599.0,121650,0.25066974999999997,-48.625,-10.0,41.09375,1.1369517886569733,446
600.0,121650,0.2500295,-48.15625,-10.0,41.3125,1.1243315396443743,447
601.0,121650,0.25098975,-48.5,-10.0,41.15625,1.1432594492333603,448
602.0,121650,0.25163,-48.53125,-10.0,41.0625,1.1558796982459598,449
603.0,121650,0.24906925000000002,-47.84375,-10.0,41.8125,1.105403630055388,450
604.0,121650,0.25195,-46.84375,-9.9375,43.125,1.1621873588223468,451
605.0,121650,0.2506695,-47.65625,-10.0,42.125,1.136946860797148,452
606.0,121650,0.24778825,-43.3125,-15.09375,41.6875,1.0801532763105386,453
607.0,121650,0.2481085,-27.5625,-9.46875,57.8125,1.0864658647467507,454
608.0,121650,0.246508,-27.3125,-10.625,56.5,1.0549177061451651,455
609.0,121650,0.24778850000000002,-23.84375,-9.96875,58.03125,1.0801582041703641,456
610.0,121650,0.24522725,-11.71875,-3.59375,62.28125,1.0296722802601415,457
611.0,121650,0.24714825,-15.5625,-4.625,61.15625,1.0675379551577646,458
612.0,121650,0.246508,-16.78125,-4.78125,61.0,1.0549177061451653,459
613.0,121650,0.246508,-17.03125,-5.0625,60.96875,1.0549177061451653,460
614.0,121650,0.24714825,-17.125,-5.25,61.0,1.0675379551577646,461
615.0,121650,0.24586775,-16.9375,-5.75,60.96875,1.042297457132566,462
616.0,121650,0.2474685,-20.125,-4.6875,60.1875,1.0738505435939771,463
617.0,121650,0.246508,-19.3125,-5.125,60.40625,1.0549177061451653,464
618.0,121650,0.24682825,-20.84375,-5.0,60.0,1.0612302945813776,465
619.0,121650,0.2474685,-20.75,-5.0,60.03125,1.0738505435939771,466
620.0,121650,0.24586750000000002,-20.59375,-5.0,60.0,1.0422925292727407,467
621.0,121650,0.24714825,-20.78125,-5.03125,60.0,1.0675379551577646,468
622.0,121650,0.24746825,-20.59375,-5.09375,60.0,1.0738456157341516,469
623.0,121650,0.24682825,-20.0,-5.9375,60.0,1.0612302945813776,470
624.0,121650,0.24874875,-20.0,-6.0,60.0,1.0990861137593502,471
625.0,121650,0.246828,-19.0625,-6.34375,60.28125,1.0612253667215525,472
626.0,121650,0.246508,-17.03125,-6.90625,60.9375,1.0549177061451653,473
627.0,121650,0.2477885,-16.6875,-6.6875,60.9375,1.080158204170364,474
628.0,121650,0.246508,-16.78125,-7.0,61.0,1.0549177061451653,475
629.0,121650,0.24874875,-17.0,-7.0,61.0,1.0990861137593502,476
630.0,121650,0.24586750000000002,-17.15625,-6.8125,60.8125,1.0422925292727407,477
631.0,121650,0.24778825,-17.40625,-6.875,60.9375,1.0801532763105386,478
632.0,121650,0.24842875,-17.3125,-6.96875,60.90625,1.0927784531829632,479
633.0,121650,0.24650825,-17.21875,-6.875,60.84375,1.0549226340049906,480
634.0,121650,0.24970925,-17.0625,-7.0,60.96875,1.1180189512081617,481
635.0,121650,0.2474685,-17.375,-6.5625,60.90625,1.073850543593977,482
636.0,121650,0.248429,-17.28125,-6.5,60.90625,1.0927833810427885,483
637.0,121650,0.2497095,-17.1875,-6.96875,60.9375,1.1180238790679873,484
638.0,121650,0.25195025,-17.15625,-7.0,60.875,1.1621922866821721,485
639.0,121650,0.248429,-17.125,-6.9375,60.96875,1.0927833810427887,486
640.0,121650,0.248429,-17.21875,-6.65625,60.96875,1.0927833810427885,487
641.0,121650,0.24682825,-17.09375,-6.96875,60.84375,1.0612302945813776,488
642.0,121650,0.24970925,-17.1875,-6.9375,60.875,1.1180189512081617,489
643.0,121650,0.246508,-17.25,-7.0,60.90625,1.0549177061451651,490
644.0,121650,0.246828,-17.15625,-6.9375,60.9375,1.061225366721552,491
645.0,121650,0.248749,-17.34375,-7.0,60.96875,1.0990910416191757,492
646.0,121650,0.24810875,-17.75,-6.90625,60.90625,1.0864707926065762,493
647.0,121650,0.2497095,-18.0625,-6.65625,60.59375,1.118023879067987,494
648.0,121650,0.2484285,-18.09375,-6.9375,60.65625,1.0927735253231379,495
649.0,121650,0.24842874999999998,-18.21875,-6.9375,60.59375,1.0927784531829632,496
650.0,121650,0.249389,-18.0,-7.0,60.59375,1.1117063627719495,497
651.0,121650,0.25067,-18.0,-7.0,60.71875,1.1369567165167989,498
652.0,121650,0.248749,-18.125,-7.03125,60.5625,1.0990910416191755,499
653.0,121650,0.24842875,-18.0,-6.78125,60.65625,1.0927784531829632,500
654.0,121650,0.248749,-18.09375,-6.25,60.5625,1.0990910416191755,501
655.0,121650,0.24842875,-18.0,-6.3125,60.6875,1.0927784531829632,502
656.0,121650,0.24714825,-18.15625,-6.40625,60.625,1.0675379551577646,503
657.0,121650,0.248749,-18.09375,-6.09375,60.46875,1.0990910416191757,504
658.0,121650,0.2481085,-18.0625,-6.75,60.53125,1.086465864746751,505
659.0,121650,0.248429,-18.0,-6.96875,60.71875,1.0927833810427887,506
660.0,121650,0.25131,-18.0625,-6.8125,60.59375,1.1495720376695726,507
661.0,121650,0.248749,-18.0,-6.5625,60.5,1.0990910416191757,508
662.0,121650,0.2503495,-18.0,-6.96875,60.6875,1.1306392002207613,509
663.0,121650,0.24970925,-18.0,-7.0,60.78125,1.1180189512081617,510
664.0,121650,0.24810875,-17.96875,-6.96875,60.6875,1.0864707926065762,511
665.0,121650,0.25066975,-18.0,-7.0,60.71875,1.1369517886569733,512
666.0,121650,0.24874875,-18.0,-7.0,60.59375,1.0990861137593502,513
667.0,121650,0.24970925,-18.0,-7.0,60.65625,1.1180189512081617,514
668.0,121650,0.25002925,-17.09375,-7.125,60.71875,1.1243266117845487,515
669.0,121650,0.24970925,-16.625,-7.03125,61.0,1.1180189512081622,516
670.0,121650,0.2506695,-16.78125,-7.03125,60.90625,1.1369468607971482,517
671.0,121650,0.25355099999999997,-17.0,-7.0,60.96875,1.193745373143583,518
672.0,121650,0.25098975,-17.0,-7.0,61.0,1.1432594492333605,519
673.0,121650,0.25098975,-16.96875,-7.15625,60.875,1.1432594492333605,520
674.0,121650,0.24874875000000002,-17.21875,-6.9375,61.03125,1.0990861137593504,521
675.0,121650,0.25163,-17.0,-7.0,60.9375,1.1558796982459598,522
676.0,121650,0.24874875000000002,-17.0625,-7.0,60.71875,1.0990861137593504,523
677.0,121650,0.24938899999999997,-17.0,-7.0,60.9375,1.1117063627719495,524
678.0,121650,0.24970925,-17.53125,-6.84375,60.84375,1.118018951208162,525
679.0,121650,0.24874875,-17.78125,-7.0,60.8125,1.0990861137593502,526
680.0,121650,0.25130975,-17.78125,-7.0,60.84375,1.1495671098097473,527
681.0,121650,0.249389,-18.0625,-6.625,60.9375,1.1117063627719497,528
682.0,121650,0.25066975,-17.4375,-6.90625,60.65625,1.1369517886569733,529
683.0,121650,0.25034975000000004,-17.3125,-7.0,60.8125,1.1306441280805868,530
684.0,121650,0.2506695,-16.96875,-7.0,60.875,1.1369468607971482,531
685.0,121650,0.25227,-17.59375,-7.0625,60.65625,1.1684950193987336,532
686.0,121650,0.24906925000000002,-17.78125,-7.0,60.53125,1.105403630055388,533
687.0,121650,0.25227025000000003,-17.3125,-7.09375,60.71875,1.1684999472585593,534
688.0,121650,0.24938925,-17.3125,-6.625,60.71875,1.111711290631775,535
689.0,121650,0.2509895,-16.9375,-6.78125,60.96875,1.143254521373535,536
690.0,121650,0.25355075,-17.625,-6.78125,60.5625,1.1937404452837574,537
691.0,121650,0.25163,-17.125,-7.03125,60.78125,1.1558796982459598,538
692.0,121650,0.25323049999999997,-15.875,-7.625,60.6875,1.1874278568475451,539
693.0,121650,0.2525905,-17.21875,-7.71875,60.8125,1.1748125356947714,540
694.0,121650,0.25163,-17.03125,-8.0,60.875,1.1558796982459598,541
695.0,121650,0.25195025000000004,-17.15625,-7.4375,60.75,1.1621922866821723,542
696.0,121650,0.25002925,-18.28125,-6.1875,60.59375,1.124326611784549,543
697.0,121650,0.25259025,-18.375,-6.0,60.46875,1.174807607834946,544
698.0,121650,0.25163,-18.375,-6.0,60.5625,1.1558796982459598,545
1042.0,121650,0.175063,-64.625,-5.6875,7.8125,-0.3533660747297398,546
1043.0,121650,0.17090125,-64.5625,-7.34375,2.15625,-0.4354001572415479,547
1044.0,121650,0.16898074999999999,-63.78125,-10.125,6.78125,-0.47325597641952066,548
1045.0,121650,0.16770000000000002,-54.5625,-21.0,21.40625,-0.4985014023045444,549
1046.0,121650,0.17058125,-41.59375,-23.21875,42.75,-0.441707817817935,550
1047.0,121650,0.17154175,-43.0,-22.6875,41.96875,-0.4227749803691234,551
1048.0,121650,0.169941,-43.25,-23.0,41.34375,-0.45432806683053417,552
1049.0,121650,0.16673975,-43.25,-23.0,41.0625,-0.5174293118935308,553
1050.0,121650,0.16834025,-43.0,-23.09375,41.15625,-0.48588115329194526,554
1051.0,121650,0.16609925,-43.03125,-23.125,41.09375,-0.5300544887659555,555
1052.0,121650,0.16545875,-43.59375,-23.125,40.96875,-0.5426796656383801,556
1053.0,121650,0.16770000000000002,-43.96875,-23.65625,40.5625,-0.4985014023045444,557
1054.0,121650,0.1622575,-43.53125,-24.0,40.96875,-0.6057809107013766,558
1055.0,121650,0.16609925,-43.40625,-24.0,40.96875,-0.5300544887659553,559
1056.0,121650,0.16609925,-43.46875,-24.0,40.78125,-0.5300544887659555,560
1057.0,121650,0.162898,-44.0,-23.75,40.0,-0.5931557338289519,561
1058.0,121650,0.16385824999999998,-43.90625,-24.0,40.25,-0.5742278242399657,562
1059.0,121650,0.16129725,-43.875,-24.0,40.40625,-0.6247088202903628,563
1060.0,121650,0.163218,-43.6875,-24.0,40.5,-0.586848073252565,564
1061.0,121650,0.15937625,-43.9375,-24.0,40.125,-0.6625744951879862,565
1062.0,121650,0.16001674999999999,-44.0,-24.0,40.03125,-0.6499493183155616,566
1063.0,121650,0.161297,-43.71875,-24.0,40.375,-0.6247137481501881,567
1064.0,121650,0.15905625,-43.59375,-24.0,40.5,-0.6688821557643733,568
1065.0,121650,0.16161725,-43.96875,-24.0,40.0625,-0.6184011597139761,569
1066.0,121650,0.158416,-43.96875,-24.0,40.0625,-0.6815024047769725,570
1067.0,121650,0.1577755,-43.84375,-24.0,40.3125,-0.694127581649397,571
1068.0,121650,0.15777575,-43.84375,-24.0,40.15625,-0.6941226537895718,572
1069.0,121650,0.154574,-44.0,-24.0,40.0,-0.7572337545722189,573
1070.0,121650,0.158736,-43.9375,-24.0,40.0,-0.6751947442005855,574
1071.0,121650,0.15425375000000002,-43.53125,-24.03125,40.1875,-0.763546343008431,575
1072.0,121650,0.15649525,-42.875,-24.375,40.8125,-0.7193631518147705,576
1073.0,121650,0.15809575,-35.5,-24.375,46.90625,-0.6878149932131847,577
1074.0,121650,0.15681525000000002,-44.25,-18.0625,42.90625,-0.7130554912383833,578
1075.0,121650,0.15745575,-44.0,-18.9375,42.53125,-0.7004303143659588,579
1076.0,121650,0.15297349999999998,-44.0,-19.0,42.625,-0.7887819131738046,580
1077.0,121650,0.15713525,-44.0,-19.15625,42.46875,-0.7067478306619963,581
1078.0,121650,0.1555345,-44.65625,-19.0,42.0,-0.7383009171234074,582
1079.0,121650,0.156175,-44.09375,-19.8125,42.3125,-0.7256757402509827,583
1080.0,121650,0.15617475,-44.0,-19.875,42.34375,-0.725680668110808,584
1081.0,121650,0.153614,-44.0,-20.0,42.46875,-0.7761567363013799,585
1082.0,121650,0.15809600000000001,-44.21875,-19.75,42.0625,-0.6878100653533594,586
1083.0,121650,0.15297375,-44.5,-19.9375,41.96875,-0.7887769853139793,587
1084.0,121650,0.156175,-44.53125,-20.0,41.96875,-0.7256757402509827,588
1085.0,121650,0.1532935,-44.1875,-20.0,42.0,-0.7824742525974175,589
1086.0,121650,0.15233325,-44.46875,-19.96875,42.0,-0.8014021621864038,590
1087.0,121650,0.15361375,-45.0,-19.53125,41.875,-0.7761616641612054,591
1088.0,121650,0.149452,-44.59375,-20.0,42.0,-0.8581957466730135,592
1089.0,121650,0.15201325,-44.09375,-20.0,42.0,-0.807709822762791,593
1090.0,121650,0.15201325,-44.1875,-19.96875,41.96875,-0.807709822762791,594
1091.0,121650,0.14977225,-45.0,-19.0625,41.625,-0.8518831582368012,595
1092.0,121650,0.1507325,-44.84375,-19.25,41.96875,-0.8329552486478149,596
1093.0,121650,0.15009224999999998,-44.6875,-19.0,42.0,-0.8455754976604142,597
1094.0,121650,0.1529735,-44.59375,-19.0,42.0,-0.7887819131738045,598
1095.0,121650,0.15137275,-45.0,-19.03125,41.875,-0.8203349996352156,599
1096.0,121650,0.149452,-44.90625,-19.03125,42.0,-0.8581957466730135,600
1097.0,121650,0.15137275,-44.625,-19.125,42.0,-0.8203349996352156,601
1098.0,121650,0.1500925,-44.65625,-19.125,42.0,-0.8455705698005891,602
1099.0,121650,0.149132,-45.0,-19.0,41.75,-0.8645034072494004,603
1100.0,121650,0.1504125,-45.0,-19.03125,41.9375,-0.8392629092242018,604
1101.0,121650,0.15009250000000002,-44.96875,-19.0625,42.0,-0.8455705698005888,605
1102.0,121650,0.14881149999999999,-44.75,-19.28125,42.0,-0.870820923545438,606
1103.0,121650,0.14977225,-43.90625,-20.28125,40.6875,-0.8518831582368012,607
1104.0,121650,0.14400975,-61.21875,-9.21875,19.78125,-0.9654703272100204,608
1105.0,121650,0.14913175,-37.5,-5.6875,51.375,-0.8645083351092258,609
1106.0,121650,0.14977200000000002,-26.15625,-10.1875,57.3125,-0.8518880860966265,610
1107.0,121650,0.14881175,-27.0,-11.0625,56.90625,-0.870815995685613,611
1108.0,121650,0.14977225,-27.3125,-11.0,56.78125,-0.8518831582368012,612
1109.0,121650,0.14785125,-27.125,-10.90625,56.875,-0.8897488331344244,613
1110.0,121650,0.14849175,-26.71875,-10.96875,57.0,-0.8771236562619998,614
1111.0,121650,0.1529735,-26.5625,-10.59375,57.03125,-0.7887819131738045,615
1112.0,121650,0.1459305,-26.6875,-11.0,57.0,-0.9276095801722224,616
1113.0,121650,0.15137275,-26.5625,-10.96875,57.0,-0.8203349996352155,617
1114.0,121650,0.15009225,-26.59375,-10.875,56.96875,-0.8455754976604141,618
1115.0,121650,0.14945175,-26.53125,-10.84375,57.0,-0.8582006745328388,619
1116.0,121650,0.152333,-25.375,-10.9375,57.3125,-0.801407090046229,620
1117.0,121650,0.14977225,-23.3125,-11.0,58.0625,-0.8518831582368013,621
1118.0,121650,0.14977200000000002,-23.09375,-10.8125,58.21875,-0.8518880860966265,622
1119.0,121650,0.14881175,-23.25,-10.9375,58.125,-0.8708159956856127,623
1120.0,121650,0.1481715,-23.96875,-11.0,58.0,-0.8834362446982121,624
1121.0,121650,0.1504125,-23.90625,-10.9375,58.0625,-0.8392629092242018,625
1122.0,121650,0.1478515,-23.28125,-11.0,58.125,-0.8897439052745991,626
1123.0,121650,0.14945175,-23.8125,-11.0,58.0,-0.8582006745328388,627
1124.0,121650,0.14977225,-23.40625,-11.0,58.03125,-0.8518831582368012,628
1125.0,121650,0.14529025,-23.25,-11.0,58.03125,-0.9402298291848217,629
1126.0,121650,0.14913175,-23.28125,-11.0,58.0,-0.8645083351092258,630
1127.0,121650,0.14881175,-23.21875,-11.09375,58.15625,-0.8708159956856127,631
1128.0,121650,0.14881175,-23.03125,-11.0625,58.0625,-0.8708159956856127,632
1129.0,121650,0.14977200000000002,-22.625,-11.1875,58.1875,-0.8518880860966265,633
1130.0,121650,0.147211,-22.90625,-11.0,58.03125,-0.9023690821470237,634
1131.0,121650,0.14977200000000002,-23.25,-11.0,58.0625,-0.8518880860966265,635
1132.0,121650,0.1504125,-23.09375,-11.21875,58.1875,-0.8392629092242018,636
1133.0,121650,0.1504125,-23.28125,-11.09375,58.0,-0.8392629092242019,637
1134.0,121650,0.1532935,-23.375,-11.09375,58.0,-0.7824742525974175,638
1135.0,121650,0.14785125,-23.125,-11.03125,58.0,-0.8897488331344244,639
1136.0,121650,0.14721075,-23.15625,-11.0,58.0,-0.902374010006849,640
1137.0,121650,0.152013,-23.1875,-11.0,58.03125,-0.8077147506226162,641
1138.0,121650,0.15265325000000002,-23.0625,-11.0,58.0,-0.7950945016100168,642
1139.0,121650,0.154254,-23.09375,-11.0,58.0625,-0.7635414151486061,643
1140.0,121650,0.15297349999999998,-23.0625,-11.0,58.0,-0.7887819131738046,644
1141.0,121650,0.15137275,-23.09375,-11.0,58.0,-0.8203349996352155,645
1142.0,121650,0.15553475,-23.03125,-11.0,58.0625,-0.7382959892635821,646
1143.0,121650,0.154254,-23.0625,-11.0,58.03125,-0.763541415148606,647
1144.0,121650,0.15521474999999998,-23.25,-11.0,58.0,-0.7446036498399692,648
1145.0,121650,0.1574555,-23.09375,-11.0,58.09375,-0.7004352422257841,649
1146.0,121650,0.1529735,-23.15625,-11.0,58.09375,-0.7887819131738045,650
1147.0,121650,0.15617525,-23.03125,-10.5625,58.125,-0.7256708123911575,651
1148.0,121650,0.149772,-23.1875,-10.8125,58.0625,-0.8518880860966266,652
1149.0,121650,0.15297375,-23.53125,-11.0,58.03125,-0.7887769853139794,653
1150.0,121650,0.1504125,-23.3125,-10.90625,58.0625,-0.8392629092242019,654
1151.0,121650,0.1481715,-23.84375,-10.5625,58.03125,-0.8834362446982121,655
1152.0,121650,0.1504125,-23.625,-11.0,58.0,-0.8392629092242018,656
1153.0,121650,0.14561025,-23.625,-11.0,58.0625,-0.9339221686084347,657
1154.0,121650,0.14913175,-23.53125,-11.0,58.0,-0.8645083351092258,658
1155.0,121650,0.14753125,-23.8125,-11.0,58.0,-0.8960564937108115,659
1156.0,121650,0.14849175,-23.53125,-11.0625,57.9375,-0.8771236562619998,660
1157.0,121650,0.149452,-23.59375,-11.0,58.0,-0.8581957466730135,661
1158.0,121650,0.1465705,-23.6875,-10.96875,58.03125,-0.9149942590194482,662
1159.0,121650,0.14945175,-23.8125,-11.0,58.0,-0.8582006745328385,663
1160.0,121650,0.147531,-23.78125,-11.0,58.0,-0.8960614215706366,664
1161.0,121650,0.14464950000000001,-23.34375,-11.03125,58.125,-0.9528599339170714,665
1162.0,121650,0.147531,-23.78125,-11.0,58.0,-0.8960614215706366,666
1163.0,121650,0.14625025,-23.34375,-11.0,58.03125,-0.9213068474556605,667
1164.0,121650,0.14593050000000002,-23.34375,-11.03125,58.0,-0.9276095801722223,668
1165.0,121650,0.147211,-23.4375,-11.0,58.0,-0.9023690821470236,669
1166.0,121650,0.14593025,-23.53125,-11.0,58.0,-0.9276145080320475,670
1167.0,121650,0.14753125,-23.625,-11.0,58.0,-0.8960564937108115,671
1168.0,121650,0.14593024999999998,-23.5,-11.0,58.0,-0.9276145080320477,672
1169.0,121650,0.1456105,-23.5,-11.0,58.03125,-0.9339172407486093,673
1170.0,121650,0.14753125,-23.375,-11.0,58.03125,-0.8960564937108115,674
1171.0,121650,0.14497,-23.21875,-11.0,58.0,-0.946542417621034,675
1172.0,121650,0.147531,-23.3125,-11.0,58.09375,-0.8960614215706366,676
1173.0,121650,0.146891,-23.8125,-11.09375,58.03125,-0.9086767427234107,677
1174.0,121650,0.14561025,-23.6875,-11.875,58.0,-0.9339221686084347,678
1175.0,121650,0.14689075000000001,-23.59375,-11.9375,58.0,-0.908681670583236,679
1176.0,121650,0.1440095,-23.90625,-11.6875,58.0,-0.9654752550698456,680
1177.0,121650,0.14881175,-23.75,-11.59375,58.0,-0.8708159956856127,681
1178.0,121650,0.14336925,-23.71875,-11.96875,58.0,-0.9780955040824448,682
1179.0,121650,0.14657075,-23.6875,-11.6875,58.0,-0.9149893311596229,683
1180.0,121650,0.146571,-23.6875,-11.375,58.03125,-0.9149844032997977,684
1181.0,121650,0.143049,-23.78125,-11.75,58.0,-0.9844080925186571,685
1182.0,121650,0.147211,-23.8125,-11.9375,58.0,-0.9023690821470236,686
1183.0,121650,0.1417685,-23.8125,-11.34375,58.0,-1.009648590543856,687
1184.0,121650,0.14400949999999998,-23.90625,-11.875,58.0,-0.9654752550698458,688
1185.0,121650,0.1436895,-23.4375,-12.0,58.0,-0.9717829156462326,689
1186.0,121650,0.14368975,-23.46875,-12.0,58.0,-0.9717779877864073,690
1187.0,121650,0.14432975,-23.53125,-11.875,58.0,-0.9591626666336333,691
1188.0,121650,0.14208874999999999,-23.28125,-11.96875,58.0,-1.0033360021076434,692
1189.0,121650,0.1459305,-23.46875,-11.9375,58.0,-0.9276095801722225,693
1190.0,121650,0.14240875,-23.21875,-11.84375,58.0,-0.9970283415312564,694
1191.0,121650,0.14304925,-23.5,-12.0,58.0,-0.9844031646588319,695
1192.0,121650,0.14176875,-23.4375,-12.0,58.0,-1.0096436626840306,696
1193.0,121650,0.14272925,-23.25,-12.0,58.0,-0.9907108252352188,697
1194.0,121650,0.1456105,-23.375,-11.96875,58.0,-0.9339172407486094,698
1195.0,121650,0.142409,-23.375,-12.0,58.0,-0.9970234136714313,699
1196.0,121650,0.14464975,-23.40625,-11.65625,58.0,-0.9528550060572463,700
1197.0,121650,0.14176875,-23.8125,-11.34375,58.0,-1.0096436626840306,701
1198.0,121650,0.14240875,-24.4375,-11.4375,57.75,-0.9970283415312565,702
1199.0,121650,0.14144825,-25.40625,-11.15625,57.21875,-1.015961178980068,703
1200.0,121650,0.140168,-26.21875,-11.0,57.0625,-1.0411967491454417,704
1201.0,121650,0.14272875000000002,-28.375,-11.6875,55.96875,-0.9907206809548693,705
1202.0,121650,0.14048775,-29.34375,-11.21875,55.5,-1.0348940164288798,706
1203.0,121650,0.14144849999999998,-28.03125,-11.28125,56.15625,-1.015956251120243,707
1204.0,121650,0.14272925,-28.625,-10.34375,56.1875,-0.990710825235219,708
1205.0,121650,0.14016775,-29.40625,-8.8125,56.0,-1.0412016770052668,709
1206.0,121650,0.14368925,-30.375,-9.21875,55.46875,-0.9717878435060578,710
1207.0,121650,0.13984775,-31.125,-9.40625,55.03125,-1.0475093375816538,711
1208.0,121650,0.1411285,-31.0,-9.84375,55.0,-1.02226391169663,712
1209.0,121650,0.13888725,-30.9375,-10.0,54.96875,-1.0664421750304656,713
1210.0,121650,0.139848,-30.90625,-10.0,55.0,-1.0475044097218285,714
1211.0,121650,0.14240875,-30.78125,-10.0,55.125,-0.9970283415312565,715
1212.0,121650,0.13888725,-31.28125,-9.96875,54.90625,-1.0664421750304656,716
1213.0,121650,0.14112825,-35.40625,-9.125,52.84375,-1.0222688395564552,717
1214.0,121650,0.1414485,-35.4375,-9.15625,52.9375,-1.015956251120243,718
1215.0,121650,0.13984775,-35.625,-9.09375,52.84375,-1.0475093375816538,719
1216.0,121650,0.142409,-35.28125,-9.0625,52.9375,-0.9970234136714312,720
1217.0,121650,0.137607,-35.15625,-9.125,52.96875,-1.0916777451958386,721
1218.0,121650,0.14144825,-35.03125,-9.0625,53.0,-1.0159611789800682,722
1219.0,121650,0.139848,-35.03125,-9.125,53.0,-1.0475044097218285,723
1220.0,121650,0.13920749999999998,-34.53125,-9.15625,53.15625,-1.060129586594253,724
1221.0,121650,0.14112825,-34.71875,-8.03125,53.3125,-1.0222688395564552,725
1222.0,121650,0.13984775,-35.0625,-8.0625,53.0,-1.0475093375816538,726
1223.0,121650,0.13984775,-34.71875,-9.34375,53.03125,-1.0475093375816538,727
1224.0,121650,0.14016800000000001,-34.375,-10.0,53.0,-1.0411967491454415,728
1225.0,121650,0.13856725,-34.0,-10.0,53.03125,-1.0727498356068526,729
1226.0,121650,0.14016775,-34.0,-10.0,53.1875,-1.0412016770052668,730
1227.0,121650,0.137927,-32.96875,-10.0,54.0,-1.0853700846194518,731
1228.0,121650,0.14048775,-32.71875,-10.0,54.0,-1.0348940164288796,732
1229.0,121650,0.14176825,-32.71875,-10.0,54.0,-1.009653518403681,733
1230.0,121650,0.13920749999999998,-32.59375,-10.0,54.0,-1.060129586594253,734
1231.0,121650,0.14176825,-32.4375,-10.0,54.0,-1.009653518403681,735
1232.0,121650,0.1395275,-32.4375,-10.0,54.0,-1.053821926017866,736
1233.0,121650,0.140488,-32.3125,-10.0,54.0,-1.0348890885690545,737
1234.0,121650,0.14176825,-32.25,-10.0,54.0,-1.009653518403681,738
1235.0,121650,0.13888725,-32.0625,-10.15625,54.28125,-1.0664421750304656,739
1236.0,121650,0.14240875,-29.15625,-10.8125,55.84375,-0.9970283415312565,740
1237.0,121650,0.14464975,-27.25,-11.21875,56.65625,-0.9528550060572463,741
1238.0,121650,0.1436895,-27.34375,-11.0625,56.71875,-0.9717829156462326,742
1239.0,121650,0.14464975,-27.28125,-11.0,56.6875,-0.9528550060572464,743
1240.0,121650,0.13920749999999998,-27.375,-11.0,56.59375,-1.060129586594253,744
1241.0,121650,0.1417685,-27.4375,-11.0,56.6875,-1.009648590543856,745
1242.0,121650,0.140488,-27.4375,-11.0,56.6875,-1.0348890885690545,746
1243.0,121650,0.14016775,-27.4375,-11.0,56.71875,-1.0412016770052668,747
1244.0,121650,0.143049,-26.875,-10.9375,57.0,-0.984408092518657,748
1245.0,121650,0.1388875,-26.875,-10.96875,57.0,-1.06643724717064,749
1246.0,121650,0.140488,-27.0,-11.0,56.96875,-1.0348890885690545,750
1247.0,121650,0.1414485,-27.03125,-11.0,56.875,-1.0159562511202427,751
1248.0,121650,0.13952775,-27.0,-11.0,56.9375,-1.053816998158041,752
1249.0,121650,0.14208874999999999,-27.03125,-11.0,56.84375,-1.0033360021076436,753
1250.0,121650,0.13760699999999998,-27.09375,-11.0,57.0,-1.0916777451958388,754
1251.0,121650,0.13920749999999998,-27.03125,-11.0,56.90625,-1.060129586594253,755
1252.0,121650,0.140168,-27.0,-11.0,56.90625,-1.0411967491454415,756
1253.0,121650,0.1369665,-27.0,-11.0,56.90625,-1.1043029220682634,757
1254.0,121650,0.14336925,-27.0,-11.0,57.0,-0.9780955040824449,758
1255.0,121650,0.1366465,-27.25,-11.0,56.71875,-1.1106105826446504,759
1256.0,121650,0.13856725,-27.40625,-11.0,56.8125,-1.072749835606852,760
1257.0,121650,0.140488,-27.40625,-11.0,56.78125,-1.0348890885690545,761
1258.0,121650,0.13792725,-27.65625,-11.0,56.75,-1.0853651567596263,762
1259.0,121650,0.14048775,-27.5,-11.0,56.5625,-1.0348940164288796,763
1260.0,121650,0.13792725,-27.59375,-11.0,56.75,-1.0853651567596263,764
1261.0,121650,0.137927,-27.53125,-11.0,56.75,-1.0853700846194518,765
1262.0,121650,0.1392075,-27.625,-11.0,56.625,-1.060129586594253,766
1263.0,121650,0.137607,-27.75,-11.0,56.34375,-1.0916777451958386,767
1264.0,121650,0.140488,-27.6875,-11.0,56.71875,-1.0348890885690545,768
1265.0,121650,0.137927,-27.875,-10.96875,56.625,-1.0853700846194516,769
1266.0,121650,0.13856725,-27.6875,-11.0,56.59375,-1.0727498356068526,770
1267.0,121650,0.13952775,-27.59375,-10.9375,56.59375,-1.0538169981580408,771
1268.0,121650,0.13632650000000002,-27.53125,-11.0,56.53125,-1.1169182432210372,772
1269.0,121650,0.138247,-27.71875,-11.03125,56.46875,-1.0790624240430646,773
1270.0,121650,0.13920749999999998,-27.65625,-11.1875,56.5,-1.060129586594253,774
1271.0,121650,0.1369665,-27.65625,-11.03125,56.40625,-1.1043029220682632,775
1272.0,121650,0.140488,-27.59375,-11.0,56.625,-1.0348890885690545,776
1273.0,121650,0.13632624999999998,-27.5625,-11.0,56.375,-1.1169231710808627,777
1274.0,121650,0.13824725,-27.5625,-11.28125,56.4375,-1.0790574961832393,778
1275.0,121650,0.13920749999999998,-27.6875,-11.0,56.53125,-1.060129586594253,779
1276.0,121650,0.13696675,-27.6875,-11.03125,56.46875,-1.104297994208438,780
1277.0,121650,0.138247,-27.5,-11.125,56.46875,-1.0790624240430646,781
1278.0,121650,0.1414485,-27.71875,-10.90625,56.40625,-1.0159562511202427,782
1279.0,121650,0.1420885,-27.90625,-11.125,56.1875,-1.0033409299674687,783
1280.0,121650,0.1360065,-28.0,-11.0625,56.03125,-1.1232259037974242,784
1281.0,121650,0.13920749999999998,-28.09375,-10.84375,56.1875,-1.060129586594253,785
1282.0,121650,0.137927,-28.875,-10.0,56.09375,-1.0853700846194516,786
1283.0,121650,0.13728675,-28.90625,-10.0625,55.96875,-1.0979903336320511,787
1284.0,121650,0.1369665,-28.84375,-10.90625,55.9375,-1.1043029220682634,788
1285.0,121650,0.13792675,-28.9375,-11.0,56.0,-1.085375012479277,789
1286.0,121650,0.13728675,-28.6875,-10.9375,56.0625,-1.0979903336320511,790
1287.0,121650,0.135686,-28.53125,-10.9375,56.03125,-1.129543420093462,791
1288.0,121650,0.13952775,-28.21875,-11.0,56.0,-1.0538169981580408,792
1289.0,121650,0.13632650000000002,-28.125,-11.0,56.09375,-1.1169182432210372,793
1290.0,121650,0.13728675,-28.0625,-11.0,56.0,-1.0979903336320511,794
1291.0,121650,0.137607,-28.0625,-11.0,56.03125,-1.0916777451958386,795
1292.0,121650,0.14080825,-28.0625,-11.0,56.03125,-1.028576500132842,796
1293.0,121650,0.13632625,-28.125,-11.0,56.0,-1.1169231710808627,797
1294.0,121650,0.13504575000000002,-28.03125,-11.0,56.125,-1.1421636691060613,798
1295.0,121650,0.13984775,-28.625,-11.0,56.0,-1.0475093375816538,799
1296.0,121650,0.13504575000000002,-28.75,-11.0,56.0,-1.1421636691060613,800
1297.0,121650,0.1392075,-28.53125,-11.09375,55.90625,-1.060129586594253,801
1298.0,121650,0.13536575,-28.875,-11.0,56.0,-1.1358560085296743,802
1299.0,121650,0.1366465,-28.84375,-11.03125,56.0,-1.1106105826446502,803
1300.0,121650,0.1369665,-28.65625,-11.0,56.03125,-1.1043029220682634,804
1301.0,121650,0.13856725,-28.71875,-11.0,56.0,-1.0727498356068526,805
1302.0,121650,0.13760699999999998,-28.71875,-11.09375,55.96875,-1.0916777451958388,806
1303.0,121650,0.135686,-28.84375,-11.0,55.96875,-1.129543420093462,807
1304.0,121650,0.140808,-28.84375,-11.0,56.0,-1.0285814279926675,808
1305.0,121650,0.13536600000000001,-28.78125,-11.0,55.96875,-1.1358510806698487,809
1306.0,121650,0.13728675,-28.8125,-11.0,56.0,-1.0979903336320511,810
1307.0,121650,0.13568625,-28.71875,-11.0,56.03125,-1.1295384922336367,811
1308.0,121650,0.1363265,-28.71875,-11.0,55.96875,-1.1169182432210374,812
1309.0,121650,0.14144875,-28.5625,-11.0,56.03125,-1.0159513232604176,813
1310.0,121650,0.135686,-28.75,-11.0,56.0,-1.129543420093462,814
1311.0,121650,0.14112825,-28.53125,-10.96875,56.0,-1.0222688395564552,815
1312.0,121650,0.13632625,-29.03125,-10.09375,56.0,-1.1169231710808625,816
1313.0,121650,0.13792675,-29.09375,-10.03125,56.0,-1.085375012479277,817
1314.0,121650,0.132164,-29.0,-10.25,56.0,-1.1989671093123213,818
1391.0,121650,0.13408550000000002,-31.75,0.1875,55.8125,-1.1610915786950473,819
1392.0,121650,0.138247,-42.875,-4.3125,45.6875,-1.0790624240430646,820
1393.0,121650,0.12928325000000002,-58.03125,-4.6875,29.0,-1.2557508380792801,821
1394.0,121650,0.12992375,-60.8125,-4.53125,22.125,-1.2431256612068555,822
1395.0,121650,0.13056375,-61.09375,-4.84375,21.46875,-1.2305103400540818,823
1396.0,121650,0.12704225,-61.0625,-5.0,21.09375,-1.2999241735532905,824
1397.0,121650,0.12960325,-61.0,-5.0,21.46875,-1.2494431775028934,825
1398.0,121650,0.129603,-61.0,-5.0,21.28125,-1.2494481053627187,826
1399.0,121650,0.13024375,-61.0,-5.0,21.25,-1.2368180006304688,827
1400.0,121650,0.131524,-61.03125,-4.96875,21.46875,-1.2115824304650955,828
1401.0,121650,0.12832274999999999,-61.0,-5.0,21.15625,-1.2746836755280921,829
1402.0,121650,0.13216425,-61.0625,-4.90625,21.75,-1.198962181452496,830
1403.0,121650,0.129603,-62.875,-8.46875,12.0,-1.2494481053627187,831
1404.0,121650,0.12800275,-63.3125,-7.8125,12.0625,-1.2809913361044791,832
1405.0,121650,0.12960325,-63.03125,-7.46875,13.5,-1.2494431775028934,833
1406.0,121650,0.12576175,-63.09375,-6.8125,14.0625,-1.3251646715784893,834
1407.0,121650,0.12832274999999999,-64.3125,-7.5625,6.09375,-1.274683675528092,835
1408.0,121650,0.12768275,-62.15625,-6.6875,16.90625,-1.287298996680866,836
1409.0,121650,0.12832274999999999,-50.0625,-6.09375,38.03125,-1.2746836755280921,837
1410.0,121650,0.13120375,-51.40625,-7.34375,35.9375,-1.2178950189013076,838
1411.0,121650,0.12480150000000001,-62.96875,-8.25,13.3125,-1.3440925811674755,839
1412.0,121650,0.12928325000000002,-63.03125,-8.0625,13.0625,-1.2557508380792803,840
1413.0,121650,0.1299235,-62.34375,-7.90625,15.875,-1.243130589066681,841
1414.0,121650,0.1273625,-62.8125,-7.9375,13.59375,-1.2936115851170784,842
1415.0,121650,0.12864275,-63.0625,-8.375,12.78125,-1.2683760149517052,843
1416.0,121650,0.12704225,-53.75,-7.875,31.21875,-1.2999241735532907,844
1417.0,121650,0.130884,-41.25,-8.5,48.28125,-1.2241977516178695,845
1418.0,121650,0.1302435,-41.0625,-8.03125,48.75,-1.236822928490294,846
1419.0,121650,0.128963,-39.96875,-8.03125,49.3125,-1.2620634265154926,847
1420.0,121650,0.1305635,-55.75,-8.78125,29.34375,-1.230515267913907,848
1421.0,121650,0.126722,-61.78125,-8.8125,17.6875,-1.306236761989503,849
1422.0,121650,0.12832274999999999,-61.625,-8.78125,18.5,-1.2746836755280921,850
1423.0,121650,0.12640200000000001,-61.3125,-8.09375,19.625,-1.3125444225658898,851
1424.0,121650,0.12992325,-60.875,-8.28125,20.53125,-1.2431355169265064,852
1425.0,121650,0.12800275,-60.75,-8.125,21.375,-1.280991336104479,853
1426.0,121650,0.1276825,-59.96875,-8.1875,23.46875,-1.2873039245406912,854
1427.0,121650,0.13184425,-60.125,-8.125,22.5,-1.205269842028883,855
1428.0,121650,0.12800275,-60.0,-8.28125,22.71875,-1.2809913361044791,856
1429.0,121650,0.1296035,-60.1875,-8.6875,22.5625,-1.249438249643068,857
1430.0,121650,0.12864275,-60.1875,-8.71875,22.625,-1.2683760149517052,858
1431.0,121650,0.1276825,-60.34375,-9.125,21.96875,-1.2873039245406912,859
1432.0,121650,0.12832274999999999,-60.25,-8.625,22.15625,-1.2746836755280921,860
1433.0,121650,0.126402,-60.59375,-9.0625,21.3125,-1.31254442256589,861
1434.0,121650,0.1305635,-61.125,-9.78125,19.21875,-1.2305152679139069,862
1435.0,121650,0.127042,-61.53125,-9.84375,18.1875,-1.299929101413116,863
1436.0,121650,0.1276825,-61.6875,-10.0,18.03125,-1.2873039245406912,864
1437.0,121650,0.1280025,-61.46875,-9.96875,18.0625,-1.2809962639643042,865
1438.0,121650,0.12608175,-61.65625,-9.96875,17.9375,-1.3188570110021023,866
1439.0,121650,0.1280025,-61.78125,-10.09375,17.40625,-1.2809962639643042,867
1440.0,121650,0.12928325000000002,-54.875,-8.875,32.34375,-1.2557508380792803,868
1441.0,121650,0.126402,-56.3125,-7.9375,30.9375,-1.31254442256589,869
1442.0,121650,0.131204,-55.25,-8.6875,32.3125,-1.2178900910414825,870
1443.0,121650,0.13280475,-55.8125,-7.15625,32.15625,-1.1863370045800716,871
1444.0,121650,0.12928325000000002,-55.875,-6.3125,31.96875,-1.2557508380792803,872
1445.0,121650,0.12992325,-55.59375,-6.4375,32.46875,-1.2431355169265064,873
1446.0,121650,0.128643,-54.78125,-9.0625,32.375,-1.2683710870918796,874
1447.0,121650,0.13216450000000002,-39.53125,-9.1875,49.0625,-1.198957253592671,875
1448.0,121650,0.13184425,-33.0625,-9.625,53.84375,-1.2052698420288832,876
1449.0,121650,0.133765,-27.0625,-6.375,57.34375,-1.1674090949910851,877
1450.0,121650,0.139848,-26.78125,-4.4375,57.6875,-1.0475044097218285,878
1451.0,121650,0.135046,-28.375,-5.875,56.875,-1.1421587412462357,879
1452.0,121650,0.14080825,-29.375,-7.28125,56.3125,-1.0285765001328422,880
1453.0,121650,0.13792675,-30.53125,-7.90625,55.8125,-1.085375012479277,881
1454.0,121650,0.135366,-31.0625,-8.40625,55.28125,-1.135851080669849,882
1455.0,121650,0.13856725,-31.0,-9.0,55.0,-1.0727498356068523,883
1456.0,121650,0.1369665,-31.0,-8.96875,55.0625,-1.1043029220682634,884
1457.0,121650,0.1372865,-31.03125,-8.78125,55.0625,-1.0979952614918764,885
1458.0,121650,0.13984775,-30.9375,-9.28125,55.15625,-1.0475093375816538,886
1459.0,121650,0.13536600000000001,-30.84375,-9.65625,55.15625,-1.1358510806698487,887
1460.0,121650,0.137927,-30.28125,-9.8125,55.28125,-1.0853700846194516,888
1461.0,121650,0.140488,-29.84375,-9.96875,55.8125,-1.0348890885690545,889
1462.0,121650,0.13728675,-29.28125,-10.0,56.0,-1.0979903336320511,890
1463.0,121650,0.13696675,-29.0625,-10.0,56.0,-1.1042979942084379,891
1464.0,121650,0.13888725,-29.0,-10.0,55.96875,-1.0664421750304656,892
1465.0,121650,0.1408085,-29.0625,-10.0,56.0,-1.0285715722730169,893
1466.0,121650,0.1395275,-29.0,-10.0,56.0,-1.0538219260178658,894
1467.0,121650,0.1388875,-29.0,-10.09375,56.0,-1.06643724717064,895
1468.0,121650,0.13696675,-29.0,-10.1875,55.96875,-1.1042979942084379,896
1469.0,121650,0.1388875,-29.0,-10.34375,56.0,-1.06643724717064,897
1470.0,121650,0.138247,-29.09375,-10.34375,55.90625,-1.0790624240430648,898
1471.0,121650,0.13792725,-28.96875,-10.6875,56.0,-1.0853651567596263,899
1472.0,121650,0.14112825,-28.875,-11.0,56.0,-1.022268839556455,900
1473.0,121650,0.13920749999999998,-28.40625,-10.71875,56.03125,-1.060129586594253,901
1474.0,121650,0.1398475,-28.78125,-10.8125,56.0625,-1.047514265441479,902
1475.0,121650,0.13984775,-28.71875,-10.9375,56.0,-1.0475093375816538,903
1476.0,121650,0.13888725,-29.3125,-10.125,55.90625,-1.0664421750304656,904
1477.0,121650,0.142729,-29.84375,-10.0,55.9375,-0.9907157530950441,905
1478.0,121650,0.137927,-29.46875,-10.0,55.8125,-1.0853700846194518,906
1479.0,121650,0.14144825,-29.90625,-10.0,55.5,-1.015961178980068,907
1480.0,121650,0.13984775,-30.03125,-9.9375,55.71875,-1.0475093375816538,908
1481.0,121650,0.1385675,-30.1875,-9.96875,55.4375,-1.072744907747027,909
1482.0,121650,0.14304925,-30.3125,-10.0,55.3125,-0.9844031646588319,910
1483.0,121650,0.13984775,-30.09375,-10.0,55.4375,-1.0475093375816538,911
1484.0,121650,0.14144825,-30.125,-10.0,55.46875,-1.0159611789800682,912
1485.0,121650,0.14208875,-30.375,-9.78125,55.34375,-1.0033360021076434,913
1486.0,121650,0.140808,-30.75,-9.3125,55.0625,-1.0285814279926675,914
1487.0,121650,0.14529,-19.53125,-7.375,59.46875,-0.940234757044647,915
1488.0,121650,0.13824725,-19.875,-8.21875,59.5625,-1.0790574961832395,916
1489.0,121650,0.140488,-21.1875,-8.78125,59.15625,-1.0348890885690545,917
1490.0,121650,0.1411285,-19.96875,-9.8125,59.46875,-1.02226391169663,918
1491.0,121650,0.14208874999999999,-20.5,-9.5,59.3125,-1.0033360021076436,919
1492.0,121650,0.14336925,-20.75,-9.90625,59.125,-0.9780955040824449,920
1493.0,121650,0.13984775,-21.0,-9.59375,59.03125,-1.0475093375816538,921
1494.0,121650,0.14336900000000002,-21.5,-9.0,59.03125,-0.9781004319422699,922
1495.0,121650,0.14144825,-21.34375,-8.9375,59.125,-1.015961178980068,923
1496.0,121650,0.142089,-21.375,-8.8125,59.03125,-1.0033310742478183,924
1497.0,121650,0.14497,-21.3125,-8.5625,59.1875,-0.9465424176210339,925
1498.0,121650,0.14208874999999999,-21.375,-8.40625,59.0,-1.0033360021076436,926
1499.0,121650,0.14432975,-19.875,-9.34375,59.59375,-0.9591626666336333,927
1500.0,121650,0.14336949999999998,-18.40625,-9.5625,60.0625,-0.9780905762226196,928
1501.0,121650,0.14465,-18.90625,-9.53125,60.03125,-0.9528500781974212,929
1502.0,121650,0.1436895,-19.0,-10.0,60.0,-0.9717829156462326,930
1503.0,121650,0.14112825,-19.0,-9.875,60.03125,-1.0222688395564552,931
1504.0,121650,0.1462505,-19.0,-9.875,60.0,-0.9213019195958354,932
1505.0,121650,0.14304925,-19.0,-9.96875,59.96875,-0.984403164658832,933
1506.0,121650,0.1414485,-19.0,-9.96875,60.0,-1.0159562511202427,934
1507.0,121650,0.14433,-18.90625,-9.84375,59.96875,-0.9591577387738079,935
1508.0,121650,0.14208874999999999,-19.65625,-9.0625,59.875,-1.0033360021076434,936
1509.0,121650,0.143369,-19.0625,-9.9375,59.90625,-0.9781004319422701,937
1510.0,121650,0.14368925,-19.0,-10.0,60.0,-0.9717878435060577,938
1511.0,121650,0.1414485,-19.34375,-9.8125,59.71875,-1.015956251120243,939
1512.0,121650,0.14432974999999998,-19.34375,-9.96875,59.90625,-0.9591626666336335,940
1513.0,121650,0.1398475,-19.46875,-9.96875,59.6875,-1.047514265441479,941
1514.0,121650,0.14080825,-19.71875,-10.0,59.75,-1.0285765001328422,942
1515.0,121650,0.14304925,-19.96875,-9.84375,59.59375,-0.984403164658832,943
1516.0,121650,0.141128,-20.0,-9.09375,59.71875,-1.0222737674162805,944
1517.0,121650,0.14304899999999998,-20.0,-9.78125,59.5625,-0.9844080925186572,945
1518.0,121650,0.14208874999999999,-20.0,-9.96875,59.71875,-1.0033360021076436,946
1519.0,121650,0.1411285,-19.90625,-9.5625,59.65625,-1.02226391169663,947
1520.0,121650,0.14464975,-20.0,-9.375,59.5625,-0.9528550060572463,948
1521.0,121650,0.1414485,-20.09375,-9.90625,59.5,-1.015956251120243,949
1522.0,121650,0.14336925,-20.15625,-10.0,59.1875,-0.9780955040824449,950
1523.0,121650,0.14465024999999998,-20.0,-10.0,59.34375,-0.9528451503375958,951
1524.0,121650,0.14144825,-20.25,-9.90625,59.21875,-1.015961178980068,952
1525.0,121650,0.14240875,-21.0625,-9.96875,59.0,-0.9970283415312566,953
1526.0,121650,0.14240875,-21.21875,-9.6875,59.03125,-0.9970283415312565,954
1527.0,121650,0.1411285,-21.5,-9.46875,59.03125,-1.02226391169663,955
1528.0,121650,0.1436895,-22.0,-9.15625,59.0,-0.9717829156462326,956
1529.0,121650,0.1414485,-21.84375,-9.8125,58.9375,-1.015956251120243,957
1530.0,121650,0.14496975,-21.96875,-9.75,59.0,-0.9465473454808593,958
1531.0,121650,0.14432975,-22.0,-9.21875,59.0,-0.9591626666336333,959
1532.0,121650,0.143049,-22.0,-9.53125,59.0,-0.9844080925186571,960
1533.0,121650,0.14561025,-22.0,-9.78125,59.0,-0.9339221686084347,961
1534.0,121650,0.14721125000000002,-22.03125,-9.375,59.03125,-0.9023641542871984,962
1535.0,121650,0.1436895,-22.03125,-9.59375,58.9375,-0.9717829156462326,963
1536.0,121650,0.1440095,-22.0,-9.75,58.96875,-0.9654752550698456,964
1537.0,121650,0.14304925000000002,-22.09375,-9.53125,58.96875,-0.9844031646588318,965
1538.0,121650,0.14529025,-22.0625,-9.09375,58.96875,-0.9402298291848218,966
1539.0,121650,0.14080825,-22.0,-9.1875,59.0,-1.028576500132842,967
1540.0,121650,0.14240875,-22.03125,-9.34375,59.0,-0.9970283415312564,968
1541.0,121650,0.14336925,-22.15625,-9.03125,58.9375,-0.9780955040824449,969
1542.0,121650,0.14208874999999999,-23.03125,-8.875,58.84375,-1.0033360021076436,970
1543.0,121650,0.14400975,-23.0625,-8.9375,58.65625,-0.9654703272100205,971
1544.0,121650,0.14465,-23.09375,-9.0,58.75,-0.952850078197421,972
1545.0,121650,0.14368925,-23.25,-8.84375,58.78125,-0.9717878435060578,973
1546.0,121650,0.142729,-24.1875,-9.0,58.28125,-0.9907157530950443,974
1547.0,121650,0.14016775,-24.96875,-8.40625,58.0,-1.0412016770052668,975
1548.0,121650,0.142409,-24.375,-7.90625,58.3125,-0.9970234136714312,976
1549.0,121650,0.14112825,-24.5625,-7.1875,58.5625,-1.0222688395564552,977
1550.0,121650,0.14016800000000001,-23.53125,-8.4375,58.53125,-1.0411967491454415,978
1551.0,121650,0.1484915,-23.25,-11.21875,58.5625,-0.877128584121825,979
1552.0,121650,0.13440525,-54.0625,-5.34375,29.90625,-1.1547888459784859,980
1553.0,121650,0.172502,-60.03125,-3.03125,24.09375,-0.4038470707801371,981
1554.0,121650,0.14304925000000002,-60.1875,-1.65625,24.15625,-0.9844031646588318,982
1555.0,121650,0.135686,-60.0,-3.09375,24.875,-1.129543420093462,983
1556.0,121650,0.13888725,-59.84375,-3.53125,25.0,-1.0664421750304656,984
1557.0,121650,0.13536575,-60.0,-3.8125,24.9375,-1.1358560085296743,985
1558.0,121650,0.1366465,-60.0,-3.96875,24.90625,-1.1106105826446502,986
1559.0,121650,0.13664625,-60.0,-4.0,25.0,-1.1106155105044757,987
1560.0,121650,0.13600600000000002,-59.96875,-4.0,24.9375,-1.123235759517075,988
1561.0,121650,0.13760699999999998,-59.96875,-4.0,24.71875,-1.0916777451958388,989
1562.0,121650,0.13472575,-60.0,-4.0,24.53125,-1.1484713296824482,990
1563.0,121650,0.1353655,-60.0,-4.0,24.625,-1.1358609363894996,991
1564.0,121650,0.1366465,-60.0,-4.0,24.65625,-1.1106105826446504,992
1565.0,121650,0.13312475000000001,-59.96875,-4.0,24.875,-1.1800293440036844,993
1566.0,121650,0.1366465,-60.0,-4.03125,24.9375,-1.1106105826446506,994
1567.0,121650,0.13280475,-60.0,-4.0,24.78125,-1.1863370045800714,995
1568.0,121650,0.135366,-60.0,-4.0625,24.90625,-1.135851080669849,996
1569.0,121650,0.135686,-60.0,-4.03125,24.9375,-1.129543420093462,997
1570.0,121650,0.1347255,-59.65625,-4.28125,25.03125,-1.1484762575422736,998
1571.0,121650,0.135686,-58.125,-2.65625,29.90625,-1.129543420093462,999
1572.0,121650,0.13440525,-32.65625,-9.03125,51.96875,-1.1547888459784859,1000
1573.0,121650,0.142409,-29.53125,-7.25,55.90625,-0.9970234136714313,1001
1574.0,121650,0.14016774999999998,-28.625,-7.4375,56.59375,-1.041201677005267,1002
1575.0,121650,0.13920749999999998,-26.9375,-8.5625,57.25,-1.0601295865942533,1003
1576.0,121650,0.1417685,-27.3125,-9.28125,57.03125,-1.009648590543856,1004
1577.0,121650,0.1395275,-26.9375,-9.96875,57.09375,-1.053821926017866,1005
1578.0,121650,0.14336925,-27.0,-10.0,57.0,-0.9780955040824449,1006
1579.0,121650,0.13984775,-26.8125,-9.875,57.03125,-1.0475093375816538,1007
1580.0,121650,0.13984775,-27.03125,-10.0,57.0,-1.0475093375816538,1008
1581.0,121650,0.14240875,-27.625,-10.0625,56.84375,-0.9970283415312564,1009
1582.0,121650,0.140488,-27.78125,-10.65625,56.6875,-1.0348890885690545,1010
1583.0,121650,0.14304875,-27.71875,-10.59375,56.65625,-0.9844130203784822,1011
1584.0,121650,0.13920749999999998,-27.75,-10.0625,56.71875,-1.060129586594253,1012
1585.0,121650,0.14080825,-27.75,-10.21875,56.6875,-1.028576500132842,1013
1586.0,121650,0.143369,-27.71875,-10.1875,56.90625,-0.9781004319422701,1014
1587.0,121650,0.13984775,-27.40625,-10.0625,56.84375,-1.0475093375816538,1015
1588.0,121650,0.143049,-27.875,-10.0,56.5625,-0.984408092518657,1016
1589.0,121650,0.13984775,-28.0,-10.03125,56.4375,-1.0475093375816538,1017
1590.0,121650,0.14336900000000002,-27.96875,-10.0625,56.3125,-0.9781004319422699,1018
1591.0,121650,0.1417685,-28.03125,-10.03125,56.4375,-1.009648590543856,1019
1592.0,121650,0.142409,-28.125,-8.9375,56.875,-0.9970234136714313,1020
1593.0,121650,0.14497,-27.875,-9.40625,56.65625,-0.9465424176210341,1021
1594.0,121650,0.14272875000000002,-27.96875,-9.625,56.84375,-0.9907206809548694,1022
1595.0,121650,0.14625074999999998,-28.0,-9.21875,56.71875,-0.9212969917360102,1023
1596.0,121650,0.14208874999999999,-28.0625,-9.6875,56.78125,-1.0033360021076434,1024
1597.0,121650,0.14465,-28.4375,-9.125,56.46875,-0.9528500781974211,1025
1598.0,121650,0.14465,-28.40625,-8.5,56.625,-0.952850078197421,1026
1599.0,121650,0.143049,-28.40625,-8.53125,56.65625,-0.9844080925186571,1027
1600.0,121650,0.1452905,-28.4375,-8.625,56.75,-0.9402249013249964,1028
1601.0,121650,0.14208874999999999,-28.4375,-8.5625,56.5625,-1.0033360021076434,1029
1602.0,121650,0.14561025,-28.6875,-8.8125,56.4375,-0.9339221686084346,1030
1603.0,121650,0.1436895,-28.53125,-8.96875,56.375,-0.9717829156462325,1031
1604.0,121650,0.14400975,-28.40625,-9.0625,56.28125,-0.9654703272100202,1032
1605.0,121650,0.14465,-28.25,-9.03125,56.5,-0.9528500781974211,1033
1606.0,121650,0.1417685,-28.40625,-9.34375,56.25,-1.009648590543856,1034
1607.0,121650,0.1462505,-28.5625,-9.71875,56.3125,-0.9213019195958354,1035
1608.0,121650,0.14529025,-28.0625,-9.96875,56.5,-0.9402298291848217,1036
1609.0,121650,0.14496975,-28.03125,-10.0,56.34375,-0.9465473454808591,1037
1610.0,121650,0.1456105,-27.53125,-10.0,56.625,-0.9339172407486094,1038
1611.0,121650,0.1436895,-27.84375,-10.0,56.96875,-0.9717829156462325,1039
1612.0,121650,0.14561025,-27.9375,-10.0,56.875,-0.9339221686084346,1040
1613.0,121650,0.14496975,-27.96875,-10.0,56.96875,-0.9465473454808593,1041
1614.0,121650,0.1436895,-28.0,-10.0,56.9375,-0.9717829156462326,1042
1615.0,121650,0.14529025,-27.90625,-10.0,56.78125,-0.9402298291848217,1043
1616.0,121650,0.1456105,-27.96875,-10.0,56.96875,-0.9339172407486094,1044
1617.0,121650,0.14432975,-27.34375,-9.625,57.125,-0.9591626666336333,1045
1618.0,121650,0.14657075,-28.625,-9.9375,56.125,-0.9149893311596231,1046
1619.0,121650,0.14689075000000001,-28.125,-10.0,56.3125,-0.9086816705832359,1047
1620.0,121650,0.1462505,-28.0,-10.0,56.5625,-0.9213019195958354,1048
1621.0,121650,0.14529,-28.59375,-9.96875,56.28125,-0.9402347570446469,1049
1622.0,121650,0.14432975,-28.0,-10.15625,56.3125,-0.9591626666336333,1050
1623.0,121650,0.14721099999999998,-28.0,-10.3125,56.28125,-0.9023690821470238,1051
1624.0,121650,0.14208874999999999,-28.0,-10.03125,56.46875,-1.0033360021076436,1052
1625.0,121650,0.14593024999999998,-28.0,-10.0,56.5,-0.9276145080320477,1053
1626.0,121650,0.1436895,-28.0,-10.125,56.5,-0.9717829156462326,1054
1627.0,121650,0.14561025,-27.96875,-10.03125,56.5,-0.9339221686084346,1055
1628.0,121650,0.14561025,-28.0,-10.0,56.6875,-0.9339221686084346,1056
1629.0,121650,0.14368925,-28.0,-10.0,56.4375,-0.9717878435060578,1057
1630.0,121650,0.14465,-27.9375,-10.03125,56.46875,-0.9528500781974211,1058
1631.0,121650,0.14304925,-28.0,-10.0,56.40625,-0.984403164658832,1059
1632.0,121650,0.14400975,-28.0,-10.0,56.46875,-0.9654703272100202,1060
1633.0,121650,0.14593075,-28.0,-10.03125,56.3125,-0.9276046523123971,1061
1634.0,121650,0.1436895,-27.96875,-10.25,56.46875,-0.9717829156462325,1062
1635.0,121650,0.14753125,-28.0,-10.25,56.375,-0.8960564937108115,1063
1636.0,121650,0.14336925,-28.0625,-9.9375,56.46875,-0.9780955040824448,1064
1637.0,121650,0.1440095,-28.03125,-10.0,56.40625,-0.9654752550698456,1065
1638.0,121650,0.14689075000000001,-28.0,-10.0,56.3125,-0.908681670583236,1066
1639.0,121650,0.1443295,-28.0,-10.0,56.4375,-0.9591675944934585,1067
1640.0,121650,0.1481715,-28.0,-10.0,56.625,-0.8834362446982121,1068
1641.0,121650,0.14529025,-28.0,-10.0,56.375,-0.9402298291848216,1069
1642.0,121650,0.14689075000000001,-28.0,-10.0,56.34375,-0.908681670583236,1070
1643.0,121650,0.14496975,-28.0,-10.0,56.3125,-0.9465473454808593,1071
1644.0,121650,0.14529,-28.03125,-10.03125,56.21875,-0.9402347570446469,1072
1645.0,121650,0.14785125,-28.03125,-10.0,56.3125,-0.8897488331344243,1073
1646.0,121650,0.142729,-28.0,-10.0,56.46875,-0.9907157530950441,1074
1647.0,121650,0.14817125,-28.03125,-10.0,56.34375,-0.8834411725580373,1075
1648.0,121650,0.14368925,-28.0,-10.0625,56.15625,-0.9717878435060578,1076
1649.0,121650,0.14561025,-28.0,-10.03125,56.3125,-0.9339221686084346,1077
1650.0,121650,0.146571,-28.15625,-10.0,56.28125,-0.9149844032997978,1078
1651.0,121650,0.14529,-28.0,-10.0,56.125,-0.9402347570446469,1079
1652.0,121650,0.14753149999999998,-28.0,-10.09375,56.0625,-0.8960515658509862,1080
1653.0,121650,0.14464975000000002,-28.0,-10.0,56.3125,-0.9528550060572462,1081
1654.0,121650,0.14625074999999998,-27.875,-9.84375,56.40625,-0.9212969917360101,1082
1655.0,121650,0.1440095,-27.96875,-10.0,56.34375,-0.9654752550698454,1083
1656.0,121650,0.142729,-27.0,-10.375,56.6875,-0.9907157530950441,1084
1657.0,121650,0.14657075,-26.5,-9.8125,57.09375,-0.914989331159623,1085
1658.0,121650,0.1433695,-27.96875,-9.96875,56.8125,-0.9780905762226195,1086
1659.0,121650,0.14657075,-27.9375,-10.0,56.96875,-0.914989331159623,1087
1660.0,121650,0.14304925000000002,-27.9375,-9.84375,56.84375,-0.9844031646588318,1088
1661.0,121650,0.1462505,-27.875,-10.0,56.9375,-0.9213019195958354,1089
1662.0,121650,0.143049,-27.96875,-10.0,56.875,-0.9844080925186571,1090
1663.0,121650,0.147531,-28.0,-10.0,56.9375,-0.8960614215706368,1091
0.0,153432,0.08580233333333333,-26.5,2.7083333333333335,58.083333333333336,-0.9262497097612234,1
1.0,153432,0.0835615,-26.21875,2.875,58.3125,-0.9660994522921715,2
2.0,153432,0.08676299999999999,-26.78125,2.5625,58.0,-0.9091657442760329,3
3.0,153432,0.0838815,-27.15625,2.5625,57.96875,-0.9604087490077223,4
4.0,153432,0.0858025,-28.375,2.09375,57.125,-0.9262467458532627,5
5.0,153432,0.0854825,-35.90625,-0.8125,52.75,-0.9319374491377119,6
6.0,153432,0.08292150000000001,-43.34375,0.34375,47.5,-0.9774808588610701,7
7.0,153432,0.08452225000000001,-43.96875,0.59375,47.1875,-0.9490140048530007,8
8.0,153432,0.081961,-44.125,0.40625,46.96875,-0.9945618604382999,9
9.0,153432,0.0848425,-44.21875,0.03125,46.8125,-0.9433188557066104,10
10.0,153432,0.084842,-44.0,-0.25,46.90625,-0.9433277474304925,11
11.0,153432,0.08324125,-43.96875,-0.53125,47.03125,-0.9717946014385619,12
12.0,153432,0.086123,-44.0,-0.9375,47.0,-0.9205471508449314,13
13.0,153432,0.084522,-44.0,-1.0,47.0,-0.9490184507149417,14
14.0,153432,0.0835615,-44.0,-1.0,47.0,-0.9660994522921715,15
15.0,153432,0.08580275,-44.0,-1.0,47.0,-0.9262422999913217,16
16.0,153432,0.08324125,-44.0,-1.0,47.0,-0.9717946014385619,17
17.0,153432,0.08388175,-44.0,-1.0,47.0,-0.9604043031457813,18
18.0,153432,0.08452225000000001,-44.0,-1.0,47.0,-0.9490140048530007,19
19.0,153432,0.082281,-44.0,-1.0,46.96875,-0.9888711571538507,20
20.0,153432,0.0848425,-40.09375,0.4375,49.78125,-0.9433188557066104,21
21.0,153432,0.08260125,-33.90625,1.71875,54.40625,-0.9831760080074603,22
22.0,153432,0.08260100000000001,-35.65625,1.75,53.5,-0.9831804538694013,23
23.0,153432,0.08484225000000001,-36.625,1.8125,52.71875,-0.9433233015685515,24
24.0,153432,0.08100025,-37.0625,1.875,52.6875,-1.0116473078774706,25
25.0,153432,0.084522,-37.34375,1.6875,52.3125,-0.9490184507149417,26
26.0,153432,0.08356175,-37.0,1.875,52.5625,-0.9660950064302305,27
27.0,153432,0.08260100000000001,-37.0,1.9375,52.40625,-0.9831804538694013,28
28.0,153432,0.08420174999999999,-37.40625,1.46875,52.28125,-0.9547135998613321,29
29.0,153432,0.08100025,-37.9375,1.8125,51.90625,-1.0116473078774706,30
30.0,153432,0.0832415,-37.78125,1.71875,52.0,-0.9717901555766209,31
31.0,153432,0.08548275,-37.90625,1.5,52.0,-0.9319330032757709,32
32.0,153432,0.0813205,-37.78125,1.375,52.03125,-1.0059521587310805,33
33.0,153432,0.08228075,-37.6875,1.40625,52.03125,-0.9888756030157917,34
34.0,153432,0.08420174999999999,-37.78125,1.625,51.9375,-0.9547135998613321,35
35.0,153432,0.08164075000000001,-38.09375,2.03125,51.6875,-1.00025700958469,36
36.0,153432,0.08388175,-38.71875,1.875,51.125,-0.9604043031457813,37
37.0,153432,0.084522,-38.28125,1.78125,51.5,-0.9490184507149417,38
38.0,153432,0.08068,-37.90625,1.46875,51.84375,-1.017342457023861,39
39.0,153432,0.08196075,-38.375,1.8125,51.3125,-0.9945663063002409,40
40.0,153432,0.0835615,-38.5625,1.84375,51.34375,-0.9660994522921715,41
41.0,153432,0.08132025,-38.78125,1.40625,51.125,-1.0059566045930215,42
42.0,153432,0.08132025,-38.0,2.0,51.90625,-1.0059566045930215,43
43.0,153432,0.08420174999999999,-37.96875,1.96875,51.96875,-0.9547135998613321,44
44.0,153432,0.08132025,-37.9375,2.0,52.0,-1.0059566045930215,45
45.0,153432,0.08100025,-38.03125,2.0,51.875,-1.0116473078774706,46
46.0,153432,0.0835615,-38.0,2.0,51.75,-0.9660994522921715,47
47.0,153432,0.08035975000000001,-38.0,2.0,52.0,-1.0230376061702513,48
48.0,153432,0.08100025,-38.0,1.9375,52.0,-1.0116473078774706,49
49.0,153432,0.083241,-38.0,2.0,52.0,-0.9717990473005029,50
50.0,153432,0.0803595,-38.25,2.0,51.40625,-1.0230420520321923,51
51.0,153432,0.08132,-38.90625,2.0,51.0,-1.0059610504549625,52
52.0,153432,0.082921,-39.03125,2.125,50.96875,-0.9774897505849521,53
53.0,153432,0.0803595,-39.0625,2.0,50.9375,-1.0230420520321923,54
54.0,153432,0.081,-38.9375,2.0,51.0,-1.0116517537394119,55
55.0,153432,0.0838815,-39.0,2.0,51.0,-0.9604087490077223,56
56.0,153432,0.0816405,-38.9375,1.96875,51.03125,-1.0002614554466311,57
57.0,153432,0.08228075,-37.875,2.0,51.84375,-0.9888756030157917,58
58.0,153432,0.0835615,-37.0625,2.0,52.40625,-0.9660994522921715,59
59.0,153432,0.08068,-37.0,2.0,52.65625,-1.017342457023861,60
60.0,153432,0.08260100000000001,-37.0,2.0,52.53125,-0.9831804538694013,61
61.0,153432,0.084522,-37.0625,2.0,52.15625,-0.9490184507149417,62
62.0,153432,0.08068,-37.03125,2.0,52.5,-1.017342457023861,63
63.0,153432,0.08260075,-37.0,2.0,52.53125,-0.9831848997313424,64
64.0,153432,0.082921,-37.0,2.0,52.6875,-0.9774897505849521,65
65.0,153432,0.08068,-37.0,2.0,52.71875,-1.017342457023861,66
66.0,153432,0.0816405,-37.03125,2.0,52.6875,-1.0002614554466311,67
67.0,153432,0.08260100000000001,-37.25,2.0,52.125,-0.9831804538694013,68
68.0,153432,0.0816405,-37.0,2.0,52.34375,-1.0002614554466311,69
69.0,153432,0.08196075,-37.0,2.0,52.40625,-0.9945663063002409,70
70.0,153432,0.08420174999999999,-37.03125,2.0,52.46875,-0.9547135998613321,71
71.0,153432,0.0816405,-37.25,2.0,52.21875,-1.0002614554466311,72
72.0,153432,0.08228075,-37.0625,2.0,52.28125,-0.9888756030157917,73
73.0,153432,0.0835615,-37.0,2.0,52.5625,-0.9660994522921715,74
74.0,153432,0.08100025,-37.0,2.0,52.75,-1.0116473078774706,75
75.0,153432,0.08260100000000001,-37.0,2.0,52.625,-0.9831804538694013,76
76.0,153432,0.08420174999999999,-36.96875,2.125,52.875,-0.9547135998613321,77
77.0,153432,0.08068,-36.875,2.0,53.0,-1.017342457023861,78
78.0,153432,0.08324125,-37.0,2.125,52.90625,-0.9717946014385619,79
79.0,153432,0.082921,-36.9375,2.15625,52.75,-0.9774897505849521,80
80.0,153432,0.08035975000000001,-37.0,2.0625,52.96875,-1.0230376061702513,81
81.0,153432,0.083241,-37.0,2.0,53.0,-0.9717990473005029,82
82.0,153432,0.08260100000000001,-36.96875,2.125,52.84375,-0.9831804538694013,83
83.0,153432,0.08100025,-37.0,2.15625,52.59375,-1.0116473078774706,84
84.0,153432,0.08420174999999999,-36.96875,2.0,52.9375,-0.9547135998613321,85
85.0,153432,0.08132025,-37.0,2.0,52.96875,-1.0059566045930215,86
86.0,153432,0.08196049999999999,-37.0,2.21875,52.84375,-0.9945707521621819,87
87.0,153432,0.084522,-37.0,2.15625,52.65625,-0.9490184507149417,88
88.0,153432,0.0803595,-37.0,2.0,52.9375,-1.0230420520321923,89
89.0,153432,0.0813205,-37.0,2.1875,52.875,-1.0059521587310805,90
90.0,153432,0.08388175,-37.0,2.21875,52.9375,-0.9604043031457813,91
91.0,153432,0.08068,-37.0,2.0,53.0,-1.017342457023861,92
92.0,153432,0.08260100000000001,-37.0,2.0625,52.9375,-0.9831804538694013,93
93.0,153432,0.082921,-37.0,2.0625,52.96875,-0.9774897505849521,94
94.0,153432,0.081,-37.0,2.1875,52.9375,-1.0116517537394119,95
95.0,153432,0.0838815,-36.96875,2.15625,52.8125,-0.9604087490077223,96
96.0,153432,0.08067975,-37.0,2.0,52.96875,-1.017346902885802,97
97.0,153432,0.08132,-37.0,2.21875,52.9375,-1.0059610504549625,98
98.0,153432,0.08324125,-37.0,2.3125,52.9375,-0.9717946014385619,99
99.0,153432,0.0816405,-37.0,2.0,53.0,-1.0002614554466311,100
100.0,153432,0.08164025,-36.96875,2.21875,53.0,-1.0002659013085722,101
101.0,153432,0.08420174999999999,-37.0,2.15625,52.96875,-0.9547135998613321,102
102.0,153432,0.08035975000000001,-37.0,2.15625,52.59375,-1.0230376061702513,103
103.0,153432,0.08196049999999999,-37.0,2.0,52.34375,-0.9945707521621819,104
104.0,153432,0.08228049999999999,-37.0,2.0,52.90625,-0.9888800488777327,105
105.0,153432,0.07971924999999999,-37.0,2.0,52.8125,-1.0344279044630318,106
106.0,153432,0.08100025,-37.0,2.28125,52.34375,-1.0116473078774706,107
107.0,153432,0.08068,-37.0,2.0,52.8125,-1.017342457023861,108
108.0,153432,0.08132025,-37.0,2.03125,52.75,-1.0059566045930215,109
109.0,153432,0.08356125,-37.0,2.0625,52.84375,-0.9661038981541126,110
110.0,153432,0.0800395,-37.0,2.09375,52.125,-1.0287327553166414,111
111.0,153432,0.082921,-37.0,2.03125,52.5,-0.9774897505849521,112
112.0,153432,0.08228075,-37.0,2.0,52.75,-0.9888756030157917,113
113.0,153432,0.08196049999999999,-37.0,2.03125,52.65625,-0.9945707521621819,114
114.0,153432,0.086763,-37.03125,2.1875,52.4375,-0.9091657442760328,115
115.0,153432,0.08035975000000001,-37.0625,2.0,52.5625,-1.0230376061702513,116
116.0,153432,0.08260075,-37.03125,2.15625,52.8125,-0.9831848997313424,117
117.0,153432,0.0816405,-37.0,2.21875,52.46875,-1.0002614554466311,118
118.0,153432,0.08132025,-37.0,2.0,52.71875,-1.0059566045930215,119
119.0,153432,0.0838815,-36.78125,2.03125,52.625,-0.9604087490077223,120
120.0,153432,0.08132025,-37.0,2.40625,52.59375,-1.0059566045930215,121
121.0,153432,0.08164025,-37.0,2.15625,52.875,-1.0002659013085722,122
122.0,153432,0.08356125,-37.0,2.0625,52.9375,-0.9661038981541126,123
123.0,153432,0.079079,-37.0,2.28125,52.625,-1.0458137568938715,124
124.0,153432,0.0816405,-37.0,2.1875,52.40625,-1.0002614554466311,125
125.0,153432,0.08260100000000001,-36.25,2.4375,53.0,-0.9831804538694013,126
126.0,153432,0.079399,-36.875,2.53125,52.96875,-1.0401230536094221,127
127.0,153432,0.08100025,-36.78125,2.78125,52.96875,-1.0116473078774706,128
128.0,153432,0.08068,-36.96875,2.59375,52.96875,-1.017342457023861,129
129.0,153432,0.08035975000000001,-37.0,2.15625,52.96875,-1.0230376061702513,130
130.0,153432,0.08260100000000001,-37.0,2.1875,52.90625,-0.9831804538694013,131
131.0,153432,0.08067975,-37.0,2.5,52.65625,-1.017346902885802,132
132.0,153432,0.0803595,-37.0,2.21875,52.75,-1.0230420520321923,133
133.0,153432,0.08196075,-36.90625,2.0,52.625,-0.9945663063002409,134
134.0,153432,0.08035975000000001,-37.0,2.1875,52.875,-1.0230376061702513,135
135.0,153432,0.08164075000000001,-36.96875,2.5625,52.28125,-1.00025700958469,136
136.0,153432,0.08035975,-37.0625,2.46875,52.625,-1.0230376061702513,137
137.0,153432,0.0797195,-37.03125,2.0,52.34375,-1.0344234586010908,138
138.0,153432,0.08196075,-37.0625,2.3125,52.21875,-0.9945663063002409,139
139.0,153432,0.07907924999999999,-37.03125,2.03125,52.375,-1.0458093110319304,140
140.0,153432,0.08068,-37.0,2.09375,52.71875,-1.017342457023861,141
141.0,153432,0.0797195,-36.8125,2.3125,52.59375,-1.0344234586010908,142
142.0,153432,0.08420174999999999,-37.0,2.4375,52.4375,-0.9547135998613321,143
143.0,153432,0.08260100000000001,-37.0,2.0625,52.8125,-0.9831804538694013,144
144.0,153432,0.0790795,-37.0,2.21875,52.8125,-1.0458048651699894,145
145.0,153432,0.0816405,-37.0,2.65625,52.84375,-1.0002614554466311,146
146.0,153432,0.08100025,-37.0,2.5625,52.90625,-1.0116473078774706,147
147.0,153432,0.079079,-36.96875,2.3125,52.90625,-1.0458137568938715,148
148.0,153432,0.082281,-37.0,2.34375,52.96875,-0.9888711571538507,149
149.0,153432,0.0790795,-37.0,2.78125,52.75,-1.0458048651699894,150
150.0,153432,0.08003974999999999,-37.0,2.28125,52.90625,-1.0287283094547006,151
151.0,153432,0.0790795,-37.0,2.40625,53.0,-1.0458048651699894,152
152.0,153432,0.0793995,-37.0,2.90625,52.90625,-1.04011416188554,153
153.0,153432,0.08260100000000001,-37.0,2.4375,52.9375,-0.9831804538694013,154
154.0,153432,0.078439,-37.0,2.21875,53.0,-1.0571951634627699,155
155.0,153432,0.08068,-37.0,2.4375,52.5625,-1.017342457023861,156
156.0,153432,0.07907925,-37.25,2.46875,52.125,-1.0458093110319302,157
157.0,153432,0.0793995,-37.03125,2.09375,52.28125,-1.04011416188554,158
158.0,153432,0.0813205,-37.0625,2.03125,52.3125,-1.0059521587310805,159
159.0,153432,0.079079,-37.28125,2.21875,52.15625,-1.0458137568938715,160
160.0,153432,0.0813205,-38.625,2.21875,51.1875,-1.0059521587310805,161
161.0,153432,0.08036,-38.78125,2.53125,51.03125,-1.0230331603083103,162
162.0,153432,0.081,-38.96875,2.84375,51.0,-1.0116517537394119,163
163.0,153432,0.08260100000000001,-38.65625,2.75,51.21875,-0.9831804538694013,164
164.0,153432,0.079399,-38.09375,2.9375,51.5625,-1.0401230536094221,165
165.0,153432,0.0813205,-38.15625,2.75,51.625,-1.0059521587310805,166
166.0,153432,0.084842,-38.34375,2.28125,51.40625,-0.9433277474304925,167
167.0,153432,0.08068025000000001,-38.0,2.0625,51.84375,-1.01733801116192,168
168.0,153432,0.08260100000000001,-37.875,2.0625,51.96875,-0.9831804538694013,169
169.0,153432,0.078759,-37.90625,2.0625,51.96875,-1.0515044601783208,170
170.0,153432,0.08260100000000001,-38.0,2.0625,51.9375,-0.9831804538694013,171
171.0,153432,0.0797195,-38.0,2.0,52.0,-1.0344234586010908,172
172.0,153432,0.08035975000000001,-38.0,2.0,52.0,-1.0230376061702513,173
173.0,153432,0.08068025000000001,-38.0,2.0,52.0,-1.01733801116192,174
174.0,153432,0.078119,-38.0,2.03125,52.0,-1.0628858667472192,175
175.0,153432,0.0816405,-37.96875,2.03125,52.0,-1.0002614554466311,176
176.0,153432,0.0790795,-38.0,2.28125,51.9375,-1.0458048651699894,177
177.0,153432,0.08003974999999999,-38.0,2.03125,51.96875,-1.0287283094547006,178
178.0,153432,0.08100025,-38.0,2.09375,51.875,-1.0116473078774706,179
179.0,153432,0.0797195,-38.0,2.0,51.96875,-1.0344234586010908,180
180.0,153432,0.08196075,-37.84375,2.21875,51.90625,-0.9945663063002409,181
181.0,153432,0.0803595,-38.1875,2.0625,51.46875,-1.0230420520321923,182
182.0,153432,0.08068,-38.09375,2.0,51.59375,-1.017342457023861,183
183.0,153432,0.0810005,-38.0,2.09375,51.75,-1.0116428620155298,184
184.0,153432,0.07971924999999999,-38.0625,2.5,51.46875,-1.0344279044630318,185
185.0,153432,0.08164075000000001,-38.0,2.1875,51.65625,-1.00025700958469,186
186.0,153432,0.078759,-37.96875,2.0625,51.71875,-1.0515044601783206,187
187.0,153432,0.08068,-38.0625,2.0,51.6875,-1.017342457023861,188
188.0,153432,0.0816405,-38.15625,2.0,51.65625,-1.0002614554466311,189
189.0,153432,0.07971924999999999,-38.0,2.0,51.75,-1.0344279044630318,190
190.0,153432,0.08164075000000001,-38.0,2.0,51.84375,-1.00025700958469,191
191.0,153432,0.0797195,-38.15625,2.0,51.65625,-1.0344234586010908,192
192.0,153432,0.08132025,-38.0625,2.03125,51.53125,-1.0059566045930215,193
193.0,153432,0.08260100000000001,-38.34375,2.15625,51.28125,-0.9831804538694013,194
194.0,153432,0.07939925,-38.78125,2.46875,51.0625,-1.040118607747481,195
195.0,153432,0.0816405,-38.5,2.0625,51.1875,-1.0002614554466311,196
196.0,153432,0.08132,-38.09375,2.03125,51.71875,-1.0059610504549625,197
197.0,153432,0.08164075000000001,-38.0,2.0625,51.90625,-1.00025700958469,198
198.0,153432,0.08196049999999999,-38.03125,2.4375,51.5,-0.9945707521621819,199
199.0,153432,0.0800395,-38.0,2.0625,51.8125,-1.0287327553166414,200
200.0,153432,0.08420174999999999,-38.0,2.0625,52.0,-0.9547135998613321,201
201.0,153432,0.081,-37.8125,2.1875,51.8125,-1.0116517537394119,202
202.0,153432,0.08260075,-38.03125,2.5,51.71875,-0.9831848997313424,203
203.0,153432,0.08068,-38.0,2.03125,51.90625,-1.0173424570238612,204
204.0,153432,0.0816405,-38.0,2.0,51.96875,-1.0002614554466311,205
205.0,153432,0.081,-38.03125,2.1875,51.6875,-1.0116517537394119,206
206.0,153432,0.08068,-38.03125,2.0625,51.65625,-1.017342457023861,207
207.0,153432,0.08196049999999999,-38.0,2.0,51.90625,-0.9945707521621819,208
208.0,153432,0.084842,-38.0,2.0,52.0,-0.9433277474304925,209
209.0,153432,0.08196049999999999,-38.0,2.125,51.9375,-0.9945707521621819,210
210.0,153432,0.0800395,-38.03125,2.21875,51.53125,-1.0287327553166417,211
211.0,153432,0.0835615,-38.03125,2.125,51.65625,-0.9660994522921715,212
212.0,153432,0.07971924999999999,-37.875,2.0625,51.90625,-1.0344279044630318,213
213.0,153432,0.0816405,-38.0,2.0,52.0,-1.0002614554466311,214
214.0,153432,0.08196049999999999,-37.84375,2.15625,52.03125,-0.9945707521621819,215
215.0,153432,0.08068,-37.9375,2.125,52.0,-1.017342457023861,216
216.0,153432,0.08228049999999999,-37.75,2.03125,52.0,-0.9888800488777327,217
217.0,153432,0.0800395,-37.90625,2.09375,52.0,-1.0287327553166417,218
218.0,153432,0.081961,-38.0,2.21875,51.96875,-0.9945618604382999,219
219.0,153432,0.0793995,-38.03125,2.03125,51.875,-1.04011416188554,220
220.0,153432,0.08164075000000001,-38.0,2.0625,52.0,-1.00025700958469,221
221.0,153432,0.079399,-38.0,2.09375,52.0,-1.0401230536094221,222
222.0,153432,0.0816405,-38.0,2.28125,52.0,-1.0002614554466311,223
223.0,153432,0.08003974999999999,-37.96875,2.0625,51.96875,-1.0287283094547006,224
224.0,153432,0.0816405,-38.0,2.0,51.96875,-1.0002614554466311,225
225.0,153432,0.08260075,-37.6875,2.21875,52.15625,-0.9831848997313424,226
226.0,153432,0.08035975000000001,-38.0,2.4375,51.9375,-1.0230376061702513,227
227.0,153432,0.082921,-38.0,2.0,51.96875,-0.9774897505849521,228
228.0,153432,0.08035975000000001,-37.78125,2.03125,52.15625,-1.0230376061702513,229
229.0,153432,0.08260100000000001,-38.0,2.1875,52.0,-0.9831804538694013,230
230.0,153432,0.08067975,-38.0,2.1875,51.96875,-1.017346902885802,231
231.0,153432,0.08164025,-38.0,2.0625,52.0,-1.0002659013085722,232
232.0,153432,0.081,-37.84375,2.15625,52.03125,-1.0116517537394119,233
233.0,153432,0.0816405,-37.96875,2.8125,51.96875,-1.0002614554466311,234
234.0,153432,0.0816405,-38.0,2.15625,52.0,-1.0002614554466311,235
235.0,153432,0.0800395,-38.0,2.0625,52.0,-1.0287327553166414,236
236.0,153432,0.08324125,-37.9375,2.21875,52.03125,-0.9717946014385619,237
237.0,153432,0.08132025,-38.0,2.03125,51.9375,-1.0059566045930215,238
238.0,153432,0.08035975000000001,-38.0,2.125,52.0625,-1.0230376061702513,239
239.0,153432,0.0816405,-37.75,2.125,51.6875,-1.0002614554466311,240
240.0,153432,0.08067975,-38.1875,2.03125,51.5,-1.017346902885802,241
241.0,153432,0.0816405,-38.1875,2.125,51.21875,-1.0002614554466311,242
242.0,153432,0.08035975000000001,-38.0625,2.0625,51.5625,-1.0230376061702513,243
243.0,153432,0.08260100000000001,-38.0,2.0,51.65625,-0.9831804538694013,244
244.0,153432,0.0800395,-38.0,2.21875,51.5625,-1.0287327553166417,245
245.0,153432,0.08196049999999999,-38.03125,2.0625,51.34375,-0.9945707521621819,246
246.0,153432,0.08164025,-38.1875,2.09375,51.34375,-1.0002659013085722,247
247.0,153432,0.0813205,-37.65625,2.0,52.0,-1.0059521587310805,248
248.0,153432,0.08164025,-38.0,2.15625,51.90625,-1.0002659013085722,249
249.0,153432,0.08164025,-38.0,2.03125,51.6875,-1.0002659013085722,250
250.0,153432,0.0835615,-38.0,2.0,51.84375,-0.9660994522921715,251
251.0,153432,0.08035975000000001,-38.0,2.0,51.96875,-1.0230376061702513,252
252.0,153432,0.08260100000000001,-38.0,2.21875,51.71875,-0.9831804538694013,253
253.0,153432,0.08035975000000001,-38.0,2.15625,51.9375,-1.0230376061702513,254
254.0,153432,0.08260100000000001,-38.0,2.0,51.9375,-0.9831804538694013,255
255.0,153432,0.07843875,-37.90625,1.96875,52.0,-1.057199609324711,256
256.0,153432,0.08196075,-38.03125,2.25,51.8125,-0.9945663063002409,257
257.0,153432,0.08452174999999999,-38.03125,2.15625,51.71875,-0.9490228965768828,258
258.0,153432,0.08260075,-38.03125,2.0,51.90625,-0.9831848997313424,259
259.0,153432,0.08132025,-38.0,2.0,51.875,-1.0059566045930215,260
260.0,153432,0.0816405,-38.0,2.1875,51.90625,-1.0002614554466311,261
261.0,153432,0.0816405,-38.0,2.125,51.84375,-1.0002614554466311,262
262.0,153432,0.081,-38.0,2.0,51.84375,-1.0116517537394119,263
263.0,153432,0.08132025,-38.0,2.0,51.6875,-1.0059566045930215,264
264.0,153432,0.08100025,-38.0,2.1875,51.71875,-1.0116473078774706,265
265.0,153432,0.08036,-38.09375,2.03125,51.84375,-1.0230331603083103,266
266.0,153432,0.0816405,-37.53125,2.09375,52.25,-1.0002614554466311,267
267.0,153432,0.0816405,-38.0,2.28125,51.96875,-1.0002614554466311,268
268.0,153432,0.08035975,-38.0,2.3125,51.9375,-1.0230376061702513,269
269.0,153432,0.08196049999999999,-38.0,2.0,51.96875,-0.9945707521621819,270
270.0,153432,0.0803595,-38.0,2.09375,52.0,-1.0230420520321923,271
271.0,153432,0.08281433333333334,-38.0,2.5,51.958333333333336,-0.9793866516797686,272
374.0,153432,0.081961,-32.5,2.3333333333333335,55.291666666666664,-0.9945618604382999,273
375.0,153432,0.08580275,-32.90625,2.78125,54.90625,-0.9262422999913217,274
376.0,153432,0.0838815,-33.375,2.96875,54.96875,-0.9604087490077223,275
377.0,153432,0.0848425,-33.71875,2.8125,55.0,-0.9433188557066104,276
378.0,153432,0.08772375,-34.0,2.75,54.84375,-0.892080296836862,277
379.0,153432,0.084202,-33.96875,2.875,54.8125,-0.954709153999391,278
380.0,153432,0.08388200000000001,-34.0,3.0,54.46875,-0.9603998572838403,279
381.0,153432,0.08388200000000001,-34.0,3.0,54.46875,-0.9603998572838403,280
382.0,153432,0.08516225,-34.03125,2.9375,54.5,-0.9376325982841023,281
383.0,153432,0.08388175,-34.0,2.90625,54.4375,-0.9604043031457813,282
384.0,153432,0.08644299999999999,-34.0,2.90625,54.4375,-0.9148564475604821,283
385.0,153432,0.082921,-34.0,3.0,54.21875,-0.9774897505849521,284
386.0,153432,0.0851625,-34.03125,3.0,54.03125,-0.9376281524221612,285
387.0,153432,0.08196075,-34.0,2.65625,54.125,-0.9945663063002409,286
388.0,153432,0.08644299999999999,-34.0,2.6875,54.09375,-0.9148564475604821,287
389.0,153432,0.08292125,-34.0,2.625,54.34375,-0.9774853047230111,288
390.0,153432,0.086123,-34.0,2.9375,54.46875,-0.9205471508449314,289
391.0,153432,0.08548225,-34.0,3.0,54.15625,-0.931941894999653,290
392.0,153432,0.08516199999999999,-34.0,3.0,54.34375,-0.9376370441460433,291
393.0,153432,0.08644275,-34.0,2.84375,54.5,-0.9148608934224232,292
394.0,153432,0.08292125,-34.0,2.75,54.40625,-0.9774853047230111,293
395.0,153432,0.0896445,-34.0,2.96875,54.15625,-0.8579227395443434,294
396.0,153432,0.08292125,-34.0,3.0,54.21875,-0.9774853047230111,295
397.0,153432,0.0851625,-34.0,2.9375,54.21875,-0.9376281524221612,296
398.0,153432,0.08356175,-34.0,2.75,54.28125,-0.9660950064302305,297
399.0,153432,0.08516225,-34.0,2.78125,54.15625,-0.9376325982841023,298
400.0,153432,0.08932425,-34.0,2.9375,54.3125,-0.8636178886907337,299
401.0,153432,0.08516225,-34.09375,3.0,54.1875,-0.9376325982841023,300
402.0,153432,0.08644275,-34.0,3.0,54.15625,-0.9148608934224232,301
403.0,153432,0.088684,-34.0,2.96875,54.21875,-0.8750037411215732,302
404.0,153432,0.0854825,-34.0,2.875,54.21875,-0.9319374491377119,303
405.0,153432,0.0838815,-34.0,2.9375,54.3125,-0.9604087490077223,304
406.0,153432,0.09092525,-34.0,3.0,54.1875,-0.8351465888207233,305
407.0,153432,0.083241,-34.03125,2.96875,54.25,-0.9717990473005029,306
408.0,153432,0.08644299999999999,-34.0,2.9375,54.28125,-0.9148564475604821,307
409.0,153432,0.084842,-34.0,2.875,54.40625,-0.9433277474304925,308
410.0,153432,0.0858025,-34.0,3.0,54.5625,-0.9262467458532627,309
411.0,153432,0.08516225,-34.0,3.0,54.03125,-0.9376325982841023,310
412.0,153432,0.084842,-34.0,2.9375,54.46875,-0.9433277474304925,311
413.0,153432,0.08612249999999999,-34.0,2.90625,54.34375,-0.9205560425688135,312
414.0,153432,0.084842,-34.0,3.0,54.375,-0.9433277474304925,313
415.0,153432,0.08676325,-34.0,3.0,54.3125,-0.9091612984140919,314
416.0,153432,0.083241,-34.0,3.0,54.375,-0.9717990473005029,315
417.0,153432,0.08644299999999999,-34.0,2.96875,54.28125,-0.9148564475604821,316
418.0,153432,0.082281,-34.0,3.0,54.34375,-0.9888711571538507,317
419.0,153432,0.0851625,-34.0,3.0,54.21875,-0.9376281524221612,318
420.0,153432,0.084202,-34.03125,3.0,54.1875,-0.954709153999391,319
421.0,153432,0.0858025,-34.0,2.9375,54.1875,-0.9262467458532627,320
422.0,153432,0.084842,-34.0,2.875,54.25,-0.9433277474304925,321
423.0,153432,0.08548225,-34.0,3.0,54.46875,-0.931941894999653,322
424.0,153432,0.08612275,-34.0,3.0,54.25,-0.9205515967068725,323
425.0,153432,0.08452174999999999,-33.96875,2.96875,54.25,-0.9490228965768828,324
426.0,153432,0.08708325,-34.0,2.90625,54.21875,-0.9034705951296427,325
427.0,153432,0.08356125,-34.5,2.625,54.1875,-0.9661038981541126,326
428.0,153432,0.086123,-34.34375,2.90625,54.34375,-0.9205471508449314,327
429.0,153432,0.0838815,-34.09375,3.0,54.46875,-0.9604087490077223,328
430.0,153432,0.0854825,-34.375,2.90625,54.21875,-0.9319374491377119,329
431.0,153432,0.0838815,-34.6875,2.84375,54.0625,-0.9604087490077223,330
432.0,153432,0.08484225000000001,-34.53125,2.5625,54.0625,-0.9433233015685515,331
433.0,153432,0.084842,-34.8125,2.21875,54.03125,-0.9433277474304925,332
434.0,153432,0.084522,-34.84375,2.875,54.0,-0.9490184507149417,333
435.0,153432,0.08612249999999999,-35.0625,2.375,53.96875,-0.9205560425688135,334
436.0,153432,0.08420174999999999,-34.4375,2.53125,54.125,-0.9547135998613321,335
437.0,153432,0.08644299999999999,-35.25,2.03125,53.875,-0.9148564475604821,336
438.0,153432,0.082281,-35.0,2.125,54.0,-0.9888711571538507,337
439.0,153432,0.084842,-35.03125,2.1875,54.0,-0.9433277474304925,338
440.0,153432,0.08292125,-34.96875,2.28125,54.03125,-0.9774853047230111,339
441.0,153432,0.0854825,-35.0,2.46875,54.0,-0.9319374491377119,340
442.0,153432,0.08516199999999999,-35.0,2.84375,54.0,-0.9376370441460433,341
443.0,153432,0.084522,-34.96875,2.15625,54.0,-0.9490184507149417,342
444.0,153432,0.084522,-35.0,2.09375,54.0,-0.9490184507149417,343
445.0,153432,0.0854825,-35.0,2.84375,54.0,-0.9319374491377119,344
446.0,153432,0.0851625,-35.0,2.65625,54.0,-0.9376281524221612,345
447.0,153432,0.08388200000000001,-35.0,2.34375,54.0,-0.9603998572838403,346
448.0,153432,0.08452225000000001,-35.0,2.28125,54.0,-0.9490140048530007,347
449.0,153432,0.08292150000000001,-35.0,2.96875,54.0,-0.9774808588610701,348
450.0,153432,0.08676299999999999,-34.96875,2.6875,54.09375,-0.9091657442760329,349
451.0,153432,0.08260100000000001,-35.0,2.21875,54.0,-0.9831804538694013,350
452.0,153432,0.08548275,-35.0,2.5,54.0,-0.9319330032757709,351
453.0,153432,0.0835615,-35.125,2.78125,54.0625,-0.9660994522921715,352
454.0,153432,0.0854825,-35.15625,2.28125,53.84375,-0.9319374491377119,353
455.0,153432,0.0838815,-35.0,2.21875,54.0,-0.9604087490077223,354
456.0,153432,0.08580275,-35.0,2.8125,54.0,-0.9262422999913217,355
457.0,153432,0.0858025,-35.0,2.8125,54.0,-0.9262467458532627,356
458.0,153432,0.0858025,-35.09375,2.25,53.9375,-0.9262467458532627,357
459.0,153432,0.084522,-35.0,2.40625,54.0,-0.9490184507149417,358
460.0,153432,0.08452225000000001,-35.15625,2.96875,53.9375,-0.9490140048530007,359
461.0,153432,0.08804375,-35.0,2.78125,54.0,-0.8863895935524128,360
462.0,153432,0.08516225,-35.0,2.5625,54.0,-0.9376325982841023,361
463.0,153432,0.08420174999999999,-35.03125,2.8125,53.96875,-0.9547135998613321,362
464.0,153432,0.08676299999999999,-35.09375,3.0,53.96875,-0.9091657442760329,363
465.0,153432,0.08324125,-35.0,2.75,54.0,-0.9717946014385619,364
466.0,153432,0.08644299999999999,-35.0625,2.34375,53.875,-0.9148564475604821,365
467.0,153432,0.082921,-35.0,2.78125,53.96875,-0.9774897505849521,366
468.0,153432,0.08644299999999999,-35.1875,2.84375,53.8125,-0.9148564475604821,367
469.0,153432,0.0838815,-35.03125,2.625,54.0,-0.9604087490077223,368
470.0,153432,0.08740324999999999,-35.0,2.6875,54.0,-0.8977798918451934,369
471.0,153432,0.0842015,-35.0625,2.96875,53.96875,-0.9547180457232731,370
472.0,153432,0.08612249999999999,-35.0,2.75,53.96875,-0.9205560425688135,371
473.0,153432,0.084842,-35.0,2.75,54.0,-0.9433277474304925,372
474.0,153432,0.084202,-35.09375,2.875,53.96875,-0.954709153999391,373
475.0,153432,0.08516225,-35.09375,2.8125,54.03125,-0.9376325982841023,374
476.0,153432,0.0842015,-35.0,2.375,53.96875,-0.9547180457232731,375
477.0,153432,0.0851625,-35.03125,2.5625,53.96875,-0.9376281524221612,376
478.0,153432,0.0842015,-35.03125,2.9375,54.0,-0.9547180457232731,377
479.0,153432,0.0858025,-35.0625,2.71875,53.90625,-0.9262467458532627,378
480.0,153432,0.0838815,-35.125,2.34375,53.78125,-0.9604087490077223,379
481.0,153432,0.0851625,-35.0625,2.71875,54.0,-0.9376281524221612,380
482.0,153432,0.08452174999999999,-35.03125,2.96875,53.96875,-0.9490228965768828,381
483.0,153432,0.09124550000000001,-35.09375,2.375,53.875,-0.8294514396743331,382
484.0,153432,0.0842015,-35.0625,2.4375,54.0,-0.9547180457232731,383
485.0,153432,0.08708325,-35.0625,2.4375,53.90625,-0.9034705951296427,384
486.0,153432,0.08452174999999999,-35.125,2.9375,53.90625,-0.9490228965768828,385
487.0,153432,0.08740324999999999,-35.125,2.75,53.9375,-0.8977798918451934,386
488.0,153432,0.08900425000000001,-35.03125,2.5,54.0,-0.869308591975183,387
489.0,153432,0.088364,-35.0,2.59375,54.0,-0.8806944444060225,388
490.0,153432,0.0858025,-35.03125,3.0,53.9375,-0.9262467458532627,389
491.0,153432,0.0877235,-35.0625,2.65625,54.0,-0.8920847426988031,390
492.0,153432,0.084842,-35.03125,2.53125,54.0,-0.9433277474304925,391
493.0,153432,0.0877235,-35.0,2.5,53.96875,-0.8920847426988031,392
494.0,153432,0.08420174999999999,-35.0625,2.875,53.96875,-0.9547135998613321,393
495.0,153432,0.08452225000000001,-35.0625,2.59375,54.0,-0.9490140048530007,394
496.0,153432,0.084522,-35.0,2.5,53.96875,-0.9490184507149417,395
497.0,153432,0.0858025,-35.0,2.78125,54.0,-0.9262467458532627,396
498.0,153432,0.08676299999999999,-35.09375,3.0,53.90625,-0.9091657442760329,397
499.0,153432,0.0858025,-35.25,2.625,53.875,-0.9262467458532627,398
500.0,153432,0.0851625,-35.1875,2.40625,53.875,-0.9376281524221612,399
501.0,153432,0.084202,-35.5,2.90625,53.6875,-0.954709153999391,400
502.0,153432,0.08516225,-36.0,2.96875,53.125,-0.9376325982841023,401
503.0,153432,0.08516225,-35.6875,2.6875,53.4375,-0.9376325982841023,402
504.0,153432,0.08740324999999999,-35.75,2.625,53.6875,-0.8977798918451934,403
505.0,153432,0.08484225000000001,-35.375,2.78125,53.84375,-0.9433233015685515,404
506.0,153432,0.08708325,-35.375,3.0,53.75,-0.9034705951296427,405
507.0,153432,0.084522,-35.46875,2.9375,53.75,-0.9490184507149417,406
508.0,153432,0.0858025,-35.1875,2.84375,53.875,-0.9262467458532627,407
509.0,153432,0.08516225,-35.3125,2.90625,53.8125,-0.9376325982841023,408
510.0,153432,0.0858025,-35.21875,3.0,53.75,-0.9262467458532627,409
511.0,153432,0.0858025,-35.3125,2.9375,53.84375,-0.9262467458532627,410
512.0,153432,0.08612275,-35.5625,2.78125,53.65625,-0.9205515967068725,411
513.0,153432,0.08644299999999999,-35.59375,2.78125,53.5625,-0.9148564475604821,412
514.0,153432,0.084842,-35.84375,2.96875,53.5,-0.9433277474304925,413
515.0,153432,0.08676299999999999,-35.75,2.75,53.4375,-0.9091657442760329,414
516.0,153432,0.08356125,-35.9375,2.8125,53.53125,-0.9661038981541126,415
517.0,153432,0.0874035,-35.84375,2.9375,53.65625,-0.8977754459832523,416
518.0,153432,0.0838815,-35.90625,2.84375,53.40625,-0.9604087490077223,417
519.0,153432,0.08516225,-35.90625,2.78125,53.5,-0.9376325982841023,418
520.0,153432,0.08388175,-35.78125,2.90625,53.5625,-0.9604043031457813,419
521.0,153432,0.0858025,-35.78125,2.9375,53.25,-0.9262467458532627,420
522.0,153432,0.08612275,-35.8125,2.5625,53.40625,-0.9205515967068725,421
523.0,153432,0.08644299999999999,-35.8125,2.6875,53.4375,-0.9148564475604821,422
524.0,153432,0.08676299999999999,-35.71875,2.9375,53.46875,-0.9091657442760329,423
525.0,153432,0.0854825,-35.96875,3.0,53.25,-0.9319374491377119,424
526.0,153432,0.08772375,-35.84375,2.8125,53.46875,-0.8920802968368621,425
527.0,153432,0.08420174999999999,-35.875,2.875,53.4375,-0.9547135998613321,426
528.0,153432,0.08676325,-36.0,3.0,53.125,-0.9091612984140919,427
529.0,153432,0.08836374999999999,-35.9375,2.875,53.28125,-0.8806988902679636,428
530.0,153432,0.08708325,-36.0,2.65625,53.3125,-0.9034705951296427,429
531.0,153432,0.084522,-36.0,2.90625,53.34375,-0.9490184507149417,430
532.0,153432,0.08740324999999999,-36.0625,2.96875,53.0,-0.8977798918451934,431
533.0,153432,0.084842,-36.0,2.96875,53.0,-0.9433277474304925,432
534.0,153432,0.08612249999999999,-36.03125,2.84375,53.0,-0.9205560425688135,433
535.0,153432,0.08420174999999999,-36.1875,2.9375,53.0,-0.9547135998613321,434
536.0,153432,0.0851625,-36.15625,3.0,53.0,-0.9376281524221612,435
537.0,153432,0.0848425,-36.03125,2.96875,53.0625,-0.9433188557066104,436
538.0,153432,0.08484225000000001,-36.0625,2.9375,53.0,-0.9433233015685515,437
539.0,153432,0.08516225,-36.625,3.0,52.9375,-0.9376325982841023,438
540.0,153432,0.08516199999999999,-37.03125,3.0,52.5,-0.9376370441460433,439
541.0,153432,0.08516225,-36.9375,3.0,52.84375,-0.9376325982841023,440
542.0,153432,0.08452174999999999,-36.90625,2.71875,52.96875,-0.9490228965768828,441
543.0,153432,0.0896445,-36.78125,2.78125,53.0,-0.8579227395443434,442
544.0,153432,0.0838815,-36.84375,2.65625,53.0,-0.9604087490077223,443
545.0,153432,0.086123,-36.84375,2.71875,53.0,-0.9205471508449314,444
546.0,153432,0.08356125,-36.75,2.78125,53.0,-0.9661038981541126,445
547.0,153432,0.0877235,-36.84375,2.6875,53.0,-0.8920847426988031,446
548.0,153432,0.08452174999999999,-36.65625,2.8125,52.96875,-0.9490228965768828,447
549.0,153432,0.08644275,-36.8125,2.875,52.75,-0.9148608934224232,448
550.0,153432,0.0842015,-36.875,2.78125,52.6875,-0.9547180457232731,449
551.0,153432,0.08708325,-36.34375,2.625,53.0,-0.9034705951296427,450
552.0,153432,0.08612275,-36.96875,2.0,52.8125,-0.9205515967068725,451
553.0,153432,0.08644299999999999,-36.625,2.1875,52.875,-0.9148564475604821,452
554.0,153432,0.08676325,-36.75,2.84375,53.0,-0.9091612984140919,453
555.0,153432,0.08644299999999999,-36.59375,2.65625,53.0,-0.9148564475604821,454
556.0,153432,0.08708325,-36.25,2.5625,53.0,-0.9034705951296427,455
557.0,153432,0.08708350000000001,-36.28125,2.625,53.0,-0.9034661492677016,456
558.0,153432,0.0874035,-36.21875,2.96875,53.0,-0.8977754459832523,457
559.0,153432,0.08612275,-36.21875,2.78125,53.0,-0.9205515967068725,458
560.0,153432,0.08612275,-36.40625,2.46875,53.0,-0.9205515967068725,459
561.0,153432,0.084842,-36.375,2.84375,53.0,-0.9433277474304925,460
562.0,153432,0.08612275,-36.59375,2.5,53.0,-0.9205515967068725,461
563.0,153432,0.08452174999999999,-36.28125,2.59375,53.0,-0.9490228965768828,462
564.0,153432,0.08676299999999999,-36.40625,2.71875,53.0,-0.9091657442760329,463
565.0,153432,0.0842015,-36.1875,2.78125,53.0,-0.9547180457232731,464
566.0,153432,0.08676325,-36.40625,2.78125,53.0,-0.9091612984140919,465
567.0,153432,0.08356125,-36.4375,2.625,53.0,-0.9661038981541126,466
568.0,153432,0.08580275,-36.15625,2.71875,53.0,-0.9262422999913217,467
569.0,153432,0.0838815,-36.34375,3.0,53.0,-0.9604087490077223,468
570.0,153432,0.0854825,-36.15625,2.8125,53.0,-0.9319374491377119,469
571.0,153432,0.08452174999999999,-36.3125,2.8125,53.0,-0.9490228965768828,470
572.0,153432,0.0858025,-36.375,2.8125,53.0,-0.9262467458532627,471
573.0,153432,0.08516199999999999,-36.125,2.9375,53.0,-0.9376370441460433,472
574.0,153432,0.08644299999999999,-36.0625,2.84375,53.0,-0.9148564475604821,473
575.0,153432,0.08612275,-36.0625,2.9375,53.0,-0.9205515967068725,474
576.0,153432,0.08644299999999999,-36.03125,3.0,53.0,-0.9148564475604821,475
577.0,153432,0.08772375,-36.0,3.0,53.0,-0.8920802968368621,476
578.0,153432,0.08580275,-36.03125,2.90625,53.0,-0.9262422999913217,477
579.0,153432,0.0874035,-36.03125,2.96875,53.0,-0.8977754459832523,478
580.0,153432,0.0854825,-36.0,3.0,53.0,-0.9319374491377119,479
581.0,153432,0.0877235,-36.0,2.875,53.0,-0.8920847426988031,480
582.0,153432,0.08452174999999999,-36.0,3.0,53.0,-0.9490228965768828,481
583.0,153432,0.08644275,-36.125,2.90625,53.125,-0.9148608934224232,482
584.0,153432,0.08612275,-36.0625,2.78125,53.0,-0.9205515967068725,483
585.0,153432,0.08772375,-36.09375,2.875,53.0,-0.8920802968368621,484
586.0,153432,0.08612275,-36.25,2.96875,53.0,-0.9205515967068725,485
587.0,153432,0.08644299999999999,-36.25,2.84375,53.0,-0.9148564475604821,486
588.0,153432,0.08612275,-36.375,2.75,52.96875,-0.9205515967068725,487
589.0,153432,0.08644299999999999,-36.1875,3.0,53.0,-0.9148564475604821,488
590.0,153432,0.0858025,-36.34375,2.84375,53.0,-0.9262467458532627,489
591.0,153432,0.08612275,-36.1875,2.9375,53.0,-0.9205515967068725,490
592.0,153432,0.08548225,-36.0625,3.0,53.0,-0.931941894999653,491
593.0,153432,0.0858025,-36.5625,2.9375,53.0,-0.9262467458532627,492
594.0,153432,0.08612275,-36.375,2.90625,53.0,-0.9205515967068725,493
595.0,153432,0.0854825,-36.3125,2.875,53.0,-0.9319374491377119,494
596.0,153432,0.08772375,-36.40625,3.0,53.0,-0.8920802968368621,495
597.0,153432,0.08516225,-36.3125,2.96875,53.0,-0.9376325982841023,496
598.0,153432,0.08676299999999999,-36.3125,2.875,53.0,-0.9091657442760329,497
599.0,153432,0.0851625,-36.53125,2.84375,52.90625,-0.9376281524221612,498
600.0,153432,0.0858025,-36.375,2.84375,53.0,-0.9262467458532627,499
601.0,153432,0.08356175,-36.4375,2.9375,53.0,-0.9660950064302305,500
602.0,153432,0.084842,-36.25,2.96875,53.0,-0.9433277474304925,501
603.0,153432,0.0851625,-36.34375,3.0,53.0,-0.9376281524221612,502
604.0,153432,0.084842,-36.375,2.96875,53.0,-0.9433277474304925,503
605.0,153432,0.08516225,-36.28125,2.90625,53.0,-0.9376325982841023,504
606.0,153432,0.08516199999999999,-36.5625,3.0,53.0,-0.9376370441460433,505
607.0,153432,0.08548225,-36.40625,2.78125,52.9375,-0.931941894999653,506
608.0,153432,0.08516225,-36.28125,2.96875,53.0,-0.9376325982841023,507
609.0,153432,0.08612275,-36.21875,3.0,53.0,-0.9205515967068725,508
610.0,153432,0.08612275,-36.3125,3.0,53.0,-0.9205515967068725,509
611.0,153432,0.08676325,-36.1875,2.9375,53.0,-0.9091612984140919,510
612.0,153432,0.08612275,-36.125,3.0,53.0,-0.9205515967068725,511
613.0,153432,0.08676325,-36.125,3.0,53.0,-0.9091612984140919,512
614.0,153432,0.08580275,-36.25,3.0,53.0,-0.9262422999913217,513
615.0,153432,0.088364,-36.15625,3.0,53.0,-0.8806944444060225,514
616.0,153432,0.0854825,-36.5,2.75,52.96875,-0.9319374491377119,515
617.0,153432,0.08708325,-36.40625,2.96875,53.03125,-0.9034705951296427,516
618.0,153432,0.08580275,-36.46875,3.0,53.0,-0.9262422999913217,517
619.0,153432,0.08804375,-36.4375,3.0,53.0,-0.8863895935524129,518
620.0,153432,0.08996475,-36.375,2.84375,52.9375,-0.8522275903979531,519
621.0,153432,0.08708325,-36.375,2.96875,52.96875,-0.9034705951296427,520
622.0,153432,0.08644299999999999,-36.15625,2.96875,53.0,-0.9148564475604821,521
623.0,153432,0.08644299999999999,-36.0625,2.84375,53.0,-0.9148564475604821,522
624.0,153432,0.08708325,-36.15625,3.0,53.0,-0.9034705951296427,523
625.0,153432,0.086123,-36.125,3.0,53.0,-0.9205471508449314,524
626.0,153432,0.08772375,-36.09375,3.0,53.0,-0.8920802968368621,525
627.0,153432,0.08516225,-36.09375,3.0,53.0,-0.9376325982841023,526
628.0,153432,0.0874035,-36.28125,3.0,53.0,-0.8977754459832523,527
629.0,153432,0.08644299999999999,-36.125,2.96875,53.0,-0.9148564475604821,528
630.0,153432,0.08612275,-36.21875,3.0,53.0,-0.9205515967068725,529
631.0,153432,0.08644275,-36.125,3.0,53.0,-0.9148608934224232,530
632.0,153432,0.08516225,-36.34375,3.0,53.0,-0.9376325982841023,531
633.0,153432,0.0874035,-36.40625,3.0,53.0,-0.8977754459832523,532
634.0,153432,0.0854825,-36.1875,2.96875,53.0,-0.9319374491377119,533
635.0,153432,0.08868424999999999,-36.3125,3.0,53.0,-0.8749992952596323,534
636.0,153432,0.08548275,-36.1875,2.96875,53.0,-0.9319330032757709,535
637.0,153432,0.08932475000000001,-36.25,2.9375,53.0,-0.8636089969668517,536
638.0,153432,0.086123,-36.5,2.84375,52.9375,-0.9205471508449314,537
639.0,153432,0.088044,-36.59375,2.96875,52.875,-0.8863851476904718,538
640.0,153432,0.0851625,-36.34375,2.90625,53.1875,-0.9376281524221612,539
641.0,153432,0.08676325,-36.40625,2.96875,53.0,-0.9091612984140919,540
642.0,153432,0.084522,-36.40625,2.96875,53.0,-0.9490184507149417,541
643.0,153432,0.08644275,-36.65625,3.0,53.0,-0.9148608934224232,542
644.0,153432,0.08516225,-36.6875,3.0,53.0,-0.9376325982841023,543
645.0,153432,0.08612275,-36.59375,3.0,53.0,-0.9205515967068725,544
890.0,153432,0.163922,-45.25,1.625,46.375,0.46298730173903774,545
891.0,153432,0.1661625,-42.4375,0.4375,48.1875,0.5028311164540644,546
892.0,153432,0.1757675,-35.625,1.875,53.21875,0.6736411322263626,547
893.0,153432,0.17800850000000001,-36.1875,1.34375,53.09375,0.7134938386652715,548
894.0,153432,0.176408,-38.71875,0.9375,51.15625,0.6850314305191431,549
895.0,153432,0.17704799999999998,-38.875,0.9375,51.15625,0.6964128370880416,550
896.0,153432,0.179289,-38.71875,1.0625,51.25,0.7362655435269506,551
897.0,153432,0.18185025,-38.1875,1.59375,51.625,0.7818133991122497,552
898.0,153432,0.1799295,-38.03125,2.0,51.84375,0.7476558418197311,553
899.0,153432,0.1834515,-38.0,2.0,51.96875,0.8102891448442011,554
900.0,153432,0.19657775,-38.0,2.03125,51.96875,1.0437191260551462,555
901.0,153432,0.20009949999999999,-38.125,2.0,51.375,1.1063479832176752,556
902.0,153432,0.194977,-38.09375,2.0,51.6875,1.015252272047077,557
903.0,153432,0.19849850000000002,-38.0625,2.0,51.65625,1.077876683347665,558
904.0,153432,0.19721775,-38.0625,2.0,51.65625,1.0551005326240448,559
905.0,153432,0.1981785,-38.15625,2.0,51.46875,1.0721859800632156,560
906.0,153432,0.19497675,-38.84375,2.0,51.0625,1.0152478261851359,561
907.0,153432,0.194977,-38.90625,2.0,51.09375,1.015252272047077,562
908.0,153432,0.19593725,-39.21875,2.0,50.78125,1.0323288277623657,563
909.0,153432,0.19433675,-39.46875,1.90625,50.65625,1.0038664196162372,564
910.0,153432,0.19401649999999998,-39.0625,1.96875,50.96875,0.9981712704698469,565
911.0,153432,0.192736,-39.5,1.875,50.71875,0.975399565608168,566
912.0,153432,0.19849875,-39.53125,1.28125,50.625,1.077881129209606,567
913.0,153432,0.198819,-39.6875,1.1875,50.6875,1.0835762783559961,568
914.0,153432,0.20009949999999999,-39.84375,1.15625,50.5625,1.106347983217675,569
915.0,153432,0.19753825,-39.875,1.125,50.5,1.0608001276323762,570
916.0,153432,0.19561725,-39.9375,1.09375,50.40625,1.0266381244779164,571
917.0,153432,0.19529675,-39.90625,1.0625,50.25,1.0209385294695852,572
918.0,153432,0.19401625,-40.0,1.28125,50.03125,0.9981668246079061,573
919.0,153432,0.1936965,-40.0,1.90625,50.03125,0.9924805671853978,574
920.0,153432,0.19209575,-40.0,2.0,50.0,0.9640137131773285,575
921.0,153432,0.1962575,-40.0,1.90625,50.0,1.038023976908756,576
922.0,153432,0.19753825,-39.96875,1.1875,50.0,1.0608001276323762,577
923.0,153432,0.19849850000000002,-40.03125,1.0625,50.0,1.077876683347665,578
