"","timestamps","ID","EDA","ACCx","ACCy","ACCz","EDA_zw","counter","EDA_pr"
"1",0,121650,0.239465,-18.375,-7.9375,60.3125,0.916090039146748,1,0.428775070776161
"2",1,121650,0.2388245,-23.75,-6.65625,58.6875,0.903464862274323,2,0.64946650830762
"3",2,121650,0.23818425,-26.84375,-5.59375,57.75,0.890844613261724,3,0.746462132470994
"4",3,121650,0.2365835,-22.4375,-4.71875,59.03125,0.859291526800313,4,0.375208144555198
"5",4,121650,0.235623,-24.8125,-3.09375,58.6875,0.840358689351501,5,0.401729571796529
"6",5,121650,0.2343425,-24,-3.4375,59,0.815118191326302,6,0.356542216206335
"7",6,121650,0.237224,-24,-3.84375,59,0.871916703672737,7,0.444020762990138
"8",7,121650,0.2324215,-24,-3.90625,59,0.777252516428679,8,0.354076581044136
"9",8,121650,0.2365835,-24,-3.9375,59.03125,0.859291526800313,9,0.440339752448559
"10",9,121650,0.23306175,-24,-3.78125,59,0.789872765441278,10,0.357256819460622
"11",10,121650,0.2359435,-24,-3.9375,59,0.846676205647539,11,0.425860272912026
"12",11,121650,0.23306175,-24,-3.9375,59,0.789872765441278,12,0.369056832705765
"13",12,121650,0.23498275,-24,-3.96875,59,0.827738440338902,13,0.409282510252416
"14",13,121650,0.2317815,-24,-4,59,0.764637195275905,14,0.348541267838448
"15",14,121650,0.23498275,-24,-3.9375,59,0.827738440338902,15,0.406922507603389
"16",15,121650,0.23178125,-23.96875,-4,59,0.76463226741608,16,0.346053706496242
"17",16,121650,0.234022,-23.96875,-4,59,0.808800675030265,17,0.390222114110427
"18",17,121650,0.2321015,-23.9375,-4,59,0.770944855852292,18,0.349883661450072
"19",18,121650,0.2327415,-24,-3.875,59,0.783560177005066,19,0.358024238971494
"20",19,121650,0.231461,-24.03125,-3.875,59,0.758319678979868,20,0.335266374428677
"21",20,121650,0.23338175,-23.90625,-4,59,0.796180426017665,21,0.372636598133063
"22",21,121650,0.23082075,-23.71875,-4,59,0.745699429967268,22,0.307259801188378
"23",22,121650,0.23178125,-23.90625,-4,59,0.76463226741608,23,0.341088439531478
"24",23,121650,0.23082075,-24,-4,59,0.745699429967268,24,0.329603502529811
"25",24,121650,0.2327415,-23.6875,-4,59,0.783560177005066,25,0.342637914743795
"26",25,121650,0.23306175,-23.96875,-3.96875,59,0.789872765441278,26,0.368934201872412
"27",26,121650,0.23210125,-23.46875,-4.0625,59,0.770939927992467,27,0.317359236652584
"28",27,121650,0.231461,-23.53125,-4.125,59,0.758319678979867,28,0.314424259902803
"29",28,121650,0.231461,-23.6875,-4,59,0.758319678979867,29,0.317397416718596
"30",29,121650,0.2327415,-23.1875,-4.1875,59,0.783560177005066,30,0.317075794919862
"31",30,121650,0.23274175,-23.1875,-4.25,59.03125,0.783565104864892,31,0.323664886461505
"32",31,121650,0.23306175,-23.15625,-4.21875,59,0.789872765441278,32,0.323265752522721
"33",32,121650,0.22986075,-23.53125,-4.0625,59,0.726776448238107,33,0.278161023862987
"34",33,121650,0.23274175,-23.09375,-4.375,59,0.783565104864892,34,0.323792838226713
"35",34,121650,0.2298605,-23.125,-4.3125,59,0.726771520378282,35,0.264761881924429
"36",35,121650,0.231461,-23.03125,-4.5625,59,0.758319678979867,36,0.307742161271097
"37",36,121650,0.22890025,-23.15625,-4.21875,59,0.707843610789296,37,0.241236597870738
"38",37,121650,0.23146125,-23.46875,-4.0625,59,0.758324606839693,38,0.30474391549981
"39",38,121650,0.22890025,-23.03125,-4.5625,59,0.707843610789296,39,0.257266093080526
"40",39,121650,0.23146125,-23,-4.59375,59,0.758324606839693,40,0.307624458297569
"41",40,121650,0.2295405,-23.03125,-4.625,59,0.720463859801895,41,0.274606347391183
"42",41,121650,0.23050075,-23.25,-4.125,59,0.739391769390881,42,0.273152648972384
"43",42,121650,0.2289,-23.09375,-4.4375,59,0.70783868292947,43,0.25278642158935
"44",43,121650,0.2321015,-23,-4.75,59,0.770944855852292,44,0.332044720555311
"45",44,121650,0.2295405,-23,-4.71875,59.0625,0.720463859801895,45,0.282932038623406
"46",45,121650,0.2324215,-23.03125,-4.5,59,0.777252516428679,46,0.321954993421852
"47",46,121650,0.22954025,-23.4375,-4.09375,59,0.72045893194207,47,0.266755609768832
"48",47,121650,0.2324215,-23,-4.59375,59,0.777252516428679,48,0.326552367886555
"49",48,121650,0.2301805,-23.1875,-4.59375,59.03125,0.733079180954669,49,0.299138991690595
"50",49,121650,0.23210125,-24,-4,59,0.770939927992467,50,0.35484400055501
"51",50,121650,0.23050075,-23.96875,-4,59,0.739391769390881,51,0.320813208471044
"52",51,121650,0.2327415,-23.5625,-4.46875,59,0.783560177005066,52,0.368107420549694
"53",52,121650,0.2301805,-23.40625,-4.4375,59,0.733079180954669,53,0.302853254438363
"54",53,121650,0.23338175,-23.9375,-4.09375,59.03125,0.796180426017665,54,0.38406339794629
"55",54,121650,0.2321015,-23.34375,-4.71875,59,0.770944855852292,55,0.356993686212479
"56",55,121650,0.2327415,-23.25,-4.65625,59.0625,0.783560177005066,56,0.361169418387574
"57",56,121650,0.2298605,-23.40625,-4.46875,59.03125,0.726771520378282,57,0.300769754894762
"58",57,121650,0.22858,-23.4375,-4.3125,59.03125,0.701531022353083,58,0.266211877106804
"59",58,121650,0.22825975,-23.3125,-4.8125,59,0.695218433916871,59,0.28586463874176
"60",59,121650,0.22858,-23,-5,59,0.701531022353083,60,0.281510908248328
"61",60,121650,0.22825975,-21.9375,-4.875,59.71875,0.695218433916871,61,0.22422441364153
"62",61,121650,0.22954025,-30.96875,-9.09375,54.90625,0.72045893194207,62,0.998465954594641
"63",62,121650,0.22825975,-29.59375,-8.875,55.65625,0.695218433916871,63,0.892209366011718
"64",63,121650,0.23018075,-27.09375,-6.9375,57.53125,0.733084108814494,64,0.696993701104711
"65",64,121650,0.23082075,-23.625,-8.1875,58.53125,0.745699429967268,65,0.588089879954627
"66",65,121650,0.23050075,-21.09375,-9.5,59.09375,0.739391769390881,66,0.51336386947223
"67",66,121650,0.230821,-20.03125,-9.84375,59.34375,0.745704357827094,67,0.476140215716872
"68",67,121650,0.23082075,-19.71875,-10,59.5,0.745699429967268,68,0.472429758197178
"69",68,121650,0.23178125,-19.28125,-10.0625,59.78125,0.76463226741608,69,0.478103157644553
"70",69,121650,0.23114075,-19.0625,-9.90625,59.75,0.752007090543655,70,0.434435374766556
"71",70,121650,0.23242175,-18.9375,-10,59.84375,0.777257444288505,71,0.462427677680247
"72",71,121650,0.23114125,-19.0625,-10,59.84375,0.752016946263306,72,0.447117713584575
"73",72,121650,0.23274175,-19,-10,59.9375,0.783565104864892,73,0.479293080372679
"74",73,121650,0.2321015,-18.875,-10,59.96875,0.770944855852292,74,0.458606455814315
"75",74,121650,0.2346625,-18.84375,-10.03125,59.96875,0.821425851902689,75,0.50896482103136
"76",75,121650,0.23178125,-18.90625,-10.5,59.9375,0.76463226741608,76,0.490672384861177
"77",76,121650,0.23274175,-19,-10.0625,59.875,0.783565104864892,77,0.480284768903214
"78",77,121650,0.23114125,-18.84375,-10.5625,59.75,0.752016946263306,78,0.466626851739132
"79",78,121650,0.23434225,-18.875,-10.84375,59.84375,0.815113263466477,79,0.559038301417222
"80",79,121650,0.23178125,-19.0625,-10.21875,59.90625,0.76463226741608,80,0.479981370048068
"81",80,121650,0.23498275,-19.1875,-10.625,59.40625,0.827738440338902,81,0.553871577197612
"82",81,121650,0.23274175,-19.46875,-10.4375,59.5,0.783565104864891,82,0.523474402322147
"83",82,121650,0.2343425,-19.75,-10.125,59.375,0.815118191326302,83,0.546314530099664
"84",83,121650,0.23338175,-19.59375,-10.28125,59.5,0.796180426017665,84,0.534220244159304
"85",84,121650,0.2324215,-19.59375,-10.03125,59.5,0.777252516428679,85,0.496412313378092
"86",85,121650,0.233702,-19.75,-10.03125,59.53125,0.802493014453878,86,0.535930137198958
"87",86,121650,0.2327415,-19.75,-10.40625,59.3125,0.783560177005066,87,0.532268222852161
"88",87,121650,0.2346625,-19.625,-10.4375,59.40625,0.821425851902689,88,0.568155841620569
"89",88,121650,0.23274175,-19.5625,-10.28125,59.5,0.783565104864892,89,0.519122289524149
"90",89,121650,0.233702,-19.6875,-10.4375,59.375,0.802493014453878,90,0.552324112752759
"91",90,121650,0.2330615,-19.5,-10.90625,59.4375,0.789867837581453,91,0.563931491488995
"92",91,121650,0.234022,-19.84375,-10.8125,59.25,0.808800675030265,92,0.591908338994354
"93",92,121650,0.23402225,-19.875,-10.1875,59.34375,0.80880560289009,93,0.552788322507274
"94",93,121650,0.2385045,-19.59375,-10.6875,59.3125,0.897157201697936,94,0.654692103974379
"95",94,121650,0.23434225,-19.90625,-10.90625,59.15625,0.815113263466477,95,0.60467372719113
"96",95,121650,0.23306175,-19.90625,-10.4375,59.1875,0.789872765441278,96,0.545897347814267
"97",96,121650,0.23530275,-19.9375,-10.96875,59.15625,0.834046100915289,97,0.630809203420381
"98",97,121650,0.23338175,-19.90625,-11,59.09375,0.796180426017665,98,0.589092580921883
"99",98,121650,0.2349825,-19.8125,-10.75,59.28125,0.827733512479076,99,0.605502696046487
"100",99,121650,0.23370225,-19.90625,-10.8125,59.25,0.802497942313703,100,0.590570873242553
"101",100,121650,0.235303,-19.375,-11,59.21875,0.834051028775114,101,0.59221504801389
"102",101,121650,0.23626325,-19.40625,-10.46875,59.46875,0.8529789383641,102,0.588418813121861
"103",102,121650,0.23530275,-19.6875,-10.78125,59.40625,0.834046100915289,103,0.611701386737244
"104",103,121650,0.2340225,-20.59375,-10.53125,59,0.808810530749915,104,0.615348107379817
"105",104,121650,0.240105,-20.65625,-10.15625,59.09375,0.928705360299522,105,0.717480647257126
"106",105,121650,0.23498275,-20.46875,-10.5625,59,0.827738440338902,106,0.626705485688304
"107",106,121650,0.23562325,-20.0625,-10.90625,59.125,0.840363617211326,107,0.640473089964125
"108",107,121650,0.2369035,-20.03125,-10.9375,59.125,0.8655991873767,108,0.665586029296145
"109",108,121650,0.2362635,-20.0625,-10.84375,59,0.852983866223926,109,0.640916700143625
"110",109,121650,0.23498275,-19.9375,-10.96875,59.28125,0.827738440338902,110,0.631958176379037
"111",110,121650,0.23402225,-19.9375,-10.96875,59.125,0.80880560289009,111,0.60370454701142
"112",111,121650,0.23562325,-19.9375,-11,59.15625,0.840363617211326,112,0.639486722365447
"113",112,121650,0.2343425,-19.875,-11,59.28125,0.815118191326302,113,0.616732663050703
"114",113,121650,0.23690375,-19.6875,-11,59.03125,0.865604115236525,114,0.63740951899655
"115",114,121650,0.233702,-19.96875,-11,59.125,0.802493014453878,115,0.602234594706618
"116",115,121650,0.237224,-19.75,-11,59.25,0.871916703672737,116,0.66173648308385
"117",116,121650,0.2346625,-20.03125,-11,59.03125,0.821425851902689,117,0.62054022396891
"118",117,121650,0.235623,-20.15625,-10.96875,59,0.840358689351501,118,0.645179434314459
"119",118,121650,0.2340225,-20.15625,-11,59,0.808810530749915,119,0.615991278361903
"120",119,121650,0.2365835,-20.40625,-11,59.03125,0.859291526800313,120,0.688197500655111
"121",120,121650,0.235303,-20.71875,-10.71875,59.125,0.834051028775114,121,0.672135788763753
"122",121,121650,0.235303,-20.53125,-10.90625,59.0625,0.834051028775114,122,0.667671686996115
"123",122,121650,0.23658375,-20.28125,-10.6875,59.09375,0.859296454660138,123,0.65840018486265
"124",123,121650,0.2340225,-19.96875,-10.96875,59.0625,0.808810530749915,124,0.602463791586106
"125",124,121650,0.23626325,-20.03125,-11,59,0.8529789383641,125,0.650229152046562
"126",125,121650,0.23530275,-20.09375,-11,59.03125,0.834046100915289,126,0.638125739946273
"127",126,121650,0.23690375,-20.09375,-11,59.03125,0.865604115236525,127,0.669683754267509
"128",127,121650,0.233702,-20.1875,-10.90625,59.15625,0.802493014453878,128,0.614397179519964
"129",128,121650,0.2343425,-20.1875,-11,59.03125,0.815118191326302,129,0.62664573080443
"130",129,121650,0.2343425,-20.125,-11,59.03125,0.815118191326302,130,0.621680463839667
"131",130,121650,0.235623,-20.15625,-11,59.03125,0.840358689351501,131,0.649403595347248
"132",131,121650,0.23402225,-20.25,-11,59.125,0.80880560289009,132,0.630890884484263
"133",132,121650,0.23466275,-20.25,-11,59.03125,0.821430779762515,133,0.637923586205406
"134",133,121650,0.23498275,-20.125,-10.96875,59.0625,0.827738440338902,134,0.633804868586999
"135",134,121650,0.2327415,-20.03125,-11,59.03125,0.783560177005066,135,0.582674549071287
"136",135,121650,0.235623,-20.09375,-11,59,0.840358689351501,136,0.642574169998726
"137",136,121650,0.23338175,-20,-11,59.0625,0.796180426017665,137,0.594676322985268
"138",137,121650,0.23434225,-20.4375,-11.03125,59,0.815113263466477,138,0.646997715068925
"139",138,121650,0.235623,-21.3125,-10.90625,58.96875,0.840358689351501,139,0.730452709480756
"140",139,121650,0.233382,-20.0625,-10.875,59.15625,0.796185353877491,140,0.595798982365022
"141",140,121650,0.2362635,-20.0625,-11,59,0.852983866223926,141,0.652716713388768
"142",141,121650,0.233382,-20.84375,-10.71875,59.03125,0.796185353877491,142,0.638608172644374
"143",142,121650,0.2365835,-20.25,-11.15625,59.0625,0.859291526800313,143,0.689448504872107
"144",143,121650,0.2343425,-20.71875,-11.03125,59,0.815118191326302,144,0.669346344270182
"145",144,121650,0.2346625,-20.75,-11,59,0.821425851902689,145,0.675776635679924
"146",145,121650,0.235303,-21.03125,-11,58.9375,0.834051028775114,146,0.70701719712626
"147",146,121650,0.2349825,-21.25,-11,59,0.827733512479076,147,0.721806431974413
"148",147,121650,0.2359435,-21.15625,-10.96875,58.875,0.846676205647539,148,0.723484588511658
"149",148,121650,0.2343425,-21.1875,-10.8125,58.96875,0.815118191326302,149,0.688201669578946
"150",149,121650,0.23658375,-21.90625,-11,58.9375,0.859296454660138,150,0.801776360517965
"151",150,121650,0.23466275,-21.65625,-11,58.84375,0.821430779762515,151,0.738457142610006
"152",151,121650,0.2365835,-21.8125,-10.84375,58.9375,0.859291526800313,152,0.78252351896585
"153",152,121650,0.235623,-21.90625,-10.125,59.03125,0.840358689351501,153,0.722350996187815
"154",153,121650,0.23626325,-21.3125,-11.15625,58.71875,0.8529789383641,154,0.747039712615495
"155",154,121650,0.23754375,-21.5,-11,58.9375,0.878219436389299,155,0.788425106976166
"156",155,121650,0.2343425,-22.3125,-10.78125,58.59375,0.815118191326302,156,0.75284657169052
"157",156,121650,0.235623,-28.28125,-7.34375,56.34375,0.840358689351501,157,0.858450369826673
"158",157,121650,0.2849245,-26.8125,-4.71875,57.90625,1.81216221406008,158,1.60853781753297
"159",158,121650,0.3025325,-25.34375,-3.875,58.1875,2.15924123727577,159,1.79199042100682
"160",159,121650,0.271799,-41.5625,-4.15625,48.34375,1.55343971751205,160,1.90870581155569
"161",160,121650,0.258353,-54.5625,-1.75,34.78125,1.28839970466799,161,1.68567638485495
"162",161,121650,0.25451125,-55.21875,-1.9375,33.75,1.21267328273257,162,1.6147280552796
"163",162,121650,0.2506695,-54.96875,-2.6875,34.125,1.13694686079715,163,1.59815052966694
"164",163,121650,0.24970925,-55,-2.78125,34,1.11801895120816,164,1.58132862797238
"165",164,121650,0.24778875,-55,-2.9375,34,1.08016313203019,165,1.55527282203955
"166",165,121650,0.244587,-55,-3,34,1.01705203124754,166,1.49688172655496
"167",166,121650,0.24586775,-55,-3,34,1.04229745713257,167,1.52212715243998
"168",167,121650,0.244907,-54.90625,-3,34.0625,1.02335969182393,168,1.49946980345172
"169",168,121650,0.2436265,-54.96875,-3,34.03125,0.99811919379873,169,1.47733041400752
"170",169,121650,0.24234575,-55,-3,34.03125,0.972873767913706,170,1.45456762160488
"171",170,121650,0.2410655,-54.96875,-3,34.03125,0.947638197748333,171,1.42684941795713
"172",171,121650,0.2433065,-55.34375,-2.65625,33.3125,0.991811533222343,172,1.4319786832539
"173",172,121650,0.24106525,-57.4375,-2.875,29.75,0.947633269888508,173,1.3581428260341
"174",173,121650,0.2436265,-56.65625,-2.65625,31.09375,0.99811919379873,174,1.4102017048433
"175",174,121650,0.2417055,-63.0625,-4.90625,11.875,0.960253518901107,175,0.904738678551049
"176",175,121650,0.24266625,-64.1875,-7.28125,5.6875,0.979191284209744,176,0.823308090566948
"177",176,121650,0.249069,-64.3125,-7.34375,6.65625,1.10539870219556,177,1.02195495767693
"178",177,121650,0.2413855,-63.96875,-7.03125,7.84375,0.95394585832472,178,0.890431137592518
"179",178,121650,0.242346,-63.96875,-7,8.78125,0.972878695773532,179,0.962928723905123
"180",179,121650,0.240105,-64,-7,9,0.928705360299522,180,0.93428713059982
"181",180,121650,0.23946475,-61.4375,-7.25,16.28125,0.916085111286922,181,1.17131986064042
"182",181,121650,0.24170575,-24,-9.09375,57.28125,0.960258446760932,182,0.826314240008262
"183",182,121650,0.2436265,-16.53125,-10.90625,60.09375,0.99811919379873,183,0.57547999293901
"184",183,121650,0.24394675,-16.96875,-11.3125,60.03125,1.00443178223494,184,0.643501167798411
"185",184,121650,0.24106525,-16.75,-11.3125,60,0.947633269888508,185,0.567460062691547
"186",185,121650,0.2452275,-15.15625,-11.90625,60.3125,1.02967720811997,186,0.586371327490699
"187",186,121650,0.24234575,-16.65625,-11.28125,60.0625,0.972873767913706,187,0.586620974388093
"188",187,121650,0.24394675,-17.375,-11.5625,59.9375,1.00443178223494,188,0.689062949110315
"189",188,121650,0.2433065,-18.09375,-11.875,59.6875,0.991811533222343,189,0.742230029612689
"190",189,121650,0.24362675,-17.59375,-11.1875,59.9375,0.998124121658556,190,0.671813691122257
"191",190,121650,0.24490725,-17.21875,-11.625,59.96875,1.02336461968375,191,0.702166782829038
"192",191,121650,0.24298625,-16.96875,-12,59.96875,0.985498944786131,192,0.672760071860704
"193",192,121650,0.24522725,-17.03125,-12,60,1.02967228026014,193,0.723762832683237
"194",193,121650,0.2429865,-16.875,-12.03125,60.03125,0.985503872645956,194,0.671405418689933
"195",194,121650,0.2449075,-16.71875,-12.03125,59.96875,1.02336954754358,195,0.693129609408129
"196",195,121650,0.24234575,-16.71875,-12,60,0.972873767913706,196,0.642137985512988
"197",196,121650,0.24298625,-16.59375,-12,60,0.985498944786131,197,0.644832628455887
"198",197,121650,0.2433065,-16.9375,-12,60,0.991811533222343,198,0.678454185198295
"199",198,121650,0.24362675,-17.09375,-12.03125,60,0.998124121658556,199,0.699539943695441
"200",199,121650,0.24394675,-17,-12,60,1.00443178223494,200,0.696039701175658
"201",200,121650,0.24138525,-16.9375,-12,60,0.953940930464895,201,0.640583582440846
"202",201,121650,0.24330625,-17.03125,-12.1875,59.84375,0.991806605362518,202,0.690736381760981
"203",202,121650,0.24234575,-17.125,-11.96875,60.03125,0.972873767913706,203,0.673916376518677
"204",203,121650,0.24522725,-17.0625,-12.1875,59.9375,1.02967228026014,204,0.736677165292269
"205",204,121650,0.24330625,-18,-11.78125,59.75,0.991806605362518,205,0.731425510126153
"206",205,121650,0.24106525,-18,-11.96875,59.6875,0.947633269888508,206,0.697683873778792
"207",206,121650,0.2413855,-18,-12,59.75,0.95394585832472,207,0.710084781631555
"208",207,121650,0.239785,-17.875,-12,59.84375,0.922397699723135,208,0.674198564251727
"209",208,121650,0.24234575,-17.75,-12,59.90625,0.972873767913706,209,0.718472415280293
"210",209,121650,0.2413855,-17.65625,-12,59.875,0.95394585832472,210,0.690232446860403
"211",210,121650,0.24330625,-17.53125,-12,59.8125,0.991806605362518,211,0.714434343201152
"212",211,121650,0.242666,-17.71875,-12,59.9375,0.979186356349919,212,0.724166528617884
"213",212,121650,0.24298625,-17.53125,-12,59.8125,0.985498944786131,213,0.708126682624765
"214",213,121650,0.24330625,-18.125,-12,59.5625,0.991806605362518,214,0.746691112296314
"215",214,121650,0.242986,-18.53125,-12,59.40625,0.985494016926306,215,0.763331967212256
"216",215,121650,0.24490725,-17.8125,-12.625,59.59375,1.02336461968375,216,0.802487003158065
"217",216,121650,0.24234575,-18.875,-12.1875,59.40625,0.972873767913706,217,0.792180702400021
"218",217,121650,0.244587,-19.3125,-12.21875,59.21875,1.01705203124754,218,0.862290886833661
"219",218,121650,0.242666,-18.34375,-12.125,59.53125,0.979186356349919,219,0.759025149872736
"220",219,121650,0.24362625,-17.75,-12.28125,59.53125,0.998114265938905,220,0.742583036541618
"221",220,121650,0.24234575,-17.9375,-12.375,59.65625,0.972873767913706,221,0.746774980892837
"222",221,121650,0.24362675,-18.125,-12.03125,59.5,0.998124121658556,222,0.751640314473856
"223",222,121650,0.242666,-18.25,-12,59.53125,0.979186356349919,223,0.74213723882948
"224",223,121650,0.24298625,-18.46875,-12.03125,59.46875,0.985498944786131,224,0.764459947523869
"225",224,121650,0.24330625,-18.59375,-12,59.34375,0.991806605362518,225,0.77088150584571
"226",225,121650,0.242666,-18.5625,-12,59.4375,0.979186356349919,226,0.761371098502011
"227",226,121650,0.244587,-19.03125,-12.21875,59.4375,1.01705203124754,227,0.852996294178553
"228",227,121650,0.242666,-18.84375,-12,59.375,0.979186356349919,228,0.779986483075923
"229",228,121650,0.2458675,-18.8125,-12.09375,59.5,1.04229252927274,229,0.855146663998493
"230",229,121650,0.243947,-20.15625,-11.9375,59.0625,1.00443671009477,230,0.886145853945128
"231",230,121650,0.2433065,-20.59375,-12,59,0.991811533222343,231,0.90926923435658
"232",231,121650,0.244587,-20.53125,-11.90625,59.03125,1.01705203124754,232,0.924328615853689
"233",232,121650,0.2433065,-21.90625,-10.15625,58.9375,0.991811533222343,233,0.870571367556403
"234",233,121650,0.24458725,-22.46875,-9.8125,58.9375,1.01705695910737,234,0.914544166984979
"235",234,121650,0.2429865,-22.03125,-10.25,58.84375,0.985503872645956,235,0.875681773705342
"236",235,121650,0.2452275,-21.96875,-10.875,58.8125,1.02967720811997,236,0.960225736811396
"237",236,121650,0.24586725,-21.71875,-10.59375,58.875,1.04228760141291,237,0.935463355171561
"238",237,121650,0.244267,-21,-11,58.96875,1.01074437067115,238,0.883092063923679
"239",238,121650,0.24362675,-21.4375,-11.09375,58.78125,0.998124121658556,239,0.901123741308941
"240",239,121650,0.2436265,-21.65625,-11,58.90625,0.99811919379873,240,0.918873873413742
"241",240,121650,0.2455475,-21.5,-11.03125,58.875,1.03598486869635,241,0.944822225164726
"242",241,121650,0.24426675,-21.375,-11.0625,58.875,1.01073944281133,242,0.912006267999205
"243",242,121650,0.244587,-21.3125,-11.0625,58.84375,1.01705203124754,243,0.911489431086895
"244",243,121650,0.24426675,-21.28125,-11,58.96875,1.01073944281133,244,0.905430837405288
"245",244,121650,0.246508,-21.125,-11,58.9375,1.05491770614517,245,0.935331774943455
"246",245,121650,0.2433065,-21.0625,-11.34375,58.9375,0.991811533222343,246,0.893220364195181
"247",246,121650,0.24426675,-21,-11.78125,58.90625,1.01073944281133,247,0.93835888552204
"248",247,121650,0.24618775,-21.09375,-11.28125,58.96875,1.04860511770895,248,0.949640735249877
"249",248,121650,0.244587,-21.09375,-11.65625,58.875,1.01705203124754,249,0.940815205425523
"250",249,121650,0.24202575,-21.71875,-12,58.4375,0.96656610733732,250,0.939843762929594
"251",250,121650,0.24394675,-21.90625,-11.90625,58.375,1.00443178223494,251,0.981796914006901
"252",251,121650,0.2413855,-21.90625,-11.1875,58.65625,0.95394585832472,252,0.89380835462287
"253",252,121650,0.24266575,-23.40625,-10.3125,58.25,0.979181428490093,253,0.947896198780866
"254",253,121650,0.24074525,-22.09375,-11,58.5625,0.941325609312121,254,0.876331415459106
"255",254,121650,0.240425,-21.90625,-11,58.78125,0.935013020875909,255,0.868172134814932
"256",255,121650,0.2413855,-22,-11,58.71875,0.95394585832472,256,0.890824555943365
"257",256,121650,0.2394645,-21.78125,-11,58.8125,0.916080183427097,257,0.841172921820353
"258",257,121650,0.2413855,-21.4375,-11.125,59,0.95394585832472,258,0.87235458931046
"259",258,121650,0.240425,-21.59375,-11,58.96875,0.935013020875909,259,0.854530750293681
"260",259,121650,0.24202575,-21.1875,-11.46875,58.90625,0.966566107337319,260,0.885481324452036
"261",260,121650,0.2388245,-21.0625,-11.9375,59,0.903464862274323,261,0.853442060346223
"262",261,121650,0.24042525,-21.125,-11.875,58.875,0.935017948735734,262,0.877783774939297
"263",262,121650,0.23882475,-21.0625,-11.6875,58.9375,0.903469790134148,263,0.830838650246299
"264",263,121650,0.23914475,-21.125,-11.96875,58.875,0.909777450710535,264,0.859623284861184
"265",264,121650,0.2394645,-21,-12,58.90625,0.916080183427097,265,0.860219644681007
"266",265,121650,0.2388245,-21,-12,58.9375,0.903464862274323,266,0.849468481911995
"267",266,121650,0.24298625,-21.34375,-11.9375,58.71875,0.985498944786131,267,0.941042418745616
"268",267,121650,0.2385045,-21.375,-12,58.78125,0.897157201697936,268,0.863631631205382
"269",268,121650,0.24042525,-21.3125,-12,58.78125,0.935017948735734,269,0.896527111278419
"270",269,121650,0.23818425,-21.15625,-12,58.71875,0.890844613261724,270,0.836212291624977
"271",270,121650,0.24010475,-21.8125,-11.625,58.6875,0.928700432439696,271,0.896019223760858
"272",271,121650,0.23850425,-21.625,-11.8125,58.75,0.897152273838111,272,0.867463596926678
"273",272,121650,0.239465,-21.375,-12,58.875,0.916090039146748,273,0.888156943805476
"274",427,121650,0.247148,-25.9375,-4.8125,58,1.06753302729794,274,0.807067376362525
"275",428,121650,0.2452275,-41.5625,-6.78125,47.15625,1.02967720811997,275,1.51234550609908
"276",429,121650,0.2458675,-52.53125,-11.9375,29.625,1.04229252927274,276,1.73997276336763
"277",430,121650,0.263795,-62.6875,-13.75,2.8125,1.39566935734517,277,1.43763773359095
"278",431,121650,0.24202575,-62.3125,-15.71875,-7.90625,0.966566107337319,278,0.488016723053374
"279",432,121650,0.24106525,-62,-16.6875,-9.96875,0.947633269888508,279,0.39438317957242
"280",433,121650,0.2410655,-61.78125,-17.03125,-10.8125,0.947638197748333,280,0.352637425833346
"281",434,121650,0.24522725,-61.5625,-17.3125,-10.875,1.02967228026014,281,0.43480478104222
"282",435,121650,0.2436265,-61.59375,-17.3125,-10.96875,0.99811919379873,282,0.400141852911907
"283",436,121650,0.240425,-61.40625,-17.53125,-11,0.935013020875909,283,0.336795739254235
"284",437,121650,0.242666,-61.46875,-17.59375,-11.125,0.979186356349919,284,0.383197713456021
"285",438,121650,0.240105,-61.5625,-17.5625,-11.15625,0.928705360299522,285,0.33594045681998
"286",439,121650,0.24234575,-61.375,-17.71875,-11.15625,0.972873767913706,286,0.377013076785017
"287",440,121650,0.24042525,-61.375,-17.71875,-11,0.935017948735734,287,0.348478049525849
"288",441,121650,0.242666,-61.28125,-17.9375,-11.09375,0.979186356349919,288,0.396126100084805
"289",442,121650,0.2413855,-61.40625,-17.96875,-11.09375,0.95394585832472,289,0.383176138638161
"290",443,121650,0.24266625,-61.25,-18,-11.03125,0.979191284209744,290,0.402096716527829
"291",444,121650,0.24266625,-61.21875,-18,-11.03125,0.979191284209744,291,0.399614083045447
"292",445,121650,0.24298625,-61.28125,-18,-11,0.985498944786131,292,0.412751168970359
"293",446,121650,0.24202575,-61.15625,-18,-11.03125,0.96656610733732,293,0.382023639208259
"294",447,121650,0.2410655,-61.1875,-18,-11,0.947638197748333,294,0.367442521485416
"295",448,121650,0.2413855,-61.0625,-18,-11,0.95394585832472,295,0.363819648132277
"296",449,121650,0.2391445,-61.09375,-18,-11,0.90977252285071,296,0.322128946140649
"297",450,121650,0.24202575,-61.53125,-18.96875,-9.9375,0.966566107337319,297,0.550220866548342
"298",451,121650,0.236904,-31.5625,-37.34375,20.8125,0.86560904309635,298,1.29043169995285
"299",452,121650,0.242026,16.8125,-58.5,15.8125,0.966571035197145,299,-1.15226648668231
"300",453,121650,0.253871,14.1875,-58.25,18.15625,1.20005303371997,300,-0.589311418049613
"301",454,121650,0.258033,14.75,-57,21.59375,1.2820920440916,301,-0.441302494108298
"302",455,121650,0.2570725,15.65625,-56.34375,22.46875,1.26315920664279,302,-0.529595323430465
"303",456,121650,0.25771275,15.5625,-56,22.96875,1.27577945565539,303,-0.505660668969866
"304",457,121650,0.25547175,15.46875,-56,23.40625,1.23160612018138,304,-0.516287886624079
"305",458,121650,0.255792,14.96875,-56.03125,23.96875,1.23791870861759,305,-0.434338308913043
"306",459,121650,0.25259025,14.875,-55.96875,23.9375,1.17480760783495,306,-0.496585672930362
"307",460,121650,0.254511,15.125,-56,24,1.21266835487274,307,-0.472497674335067
"308",461,121650,0.2525905,15.8125,-56,23.34375,1.17481253569477,308,-0.604118756184405
"309",462,121650,0.2529105,15.75,-55.84375,23.78125,1.18112019627116,309,-0.578547624515749
"310",463,121650,0.25066975,13.46875,-56.3125,23.96875,1.13695178865697,310,-0.394898797878098
"311",464,121650,0.25098975,11.40625,-56.15625,25.28125,1.14325944923336,311,-0.158242688591726
"312",465,121650,0.25163,11.5,-56,25.9375,1.15587969824596,312,-0.125723027212438
"313",466,121650,0.2506695,11.84375,-56,25.78125,1.13694686079715,313,-0.181285624886247
"314",467,121650,0.25323075,11.90625,-56,25.84375,1.18743278470737,314,-0.13203665117327
"315",468,121650,0.25130975,11.46875,-56,25.875,1.14956710980975,315,-0.13328129893379
"316",469,121650,0.2529105,11.21875,-56,25.96875,1.18112019627116,316,-0.0762746694620442
"317",470,121650,0.248749,11.1875,-56,26,1.09909104161918,317,-0.153957032247888
"318",471,121650,0.25130975,11.25,-56,26,1.14956710980975,318,-0.108446231022078
"319",472,121650,0.24970925,11.53125,-56,25.9375,1.11801895120816,319,-0.166066407732616
"320",473,121650,0.24842875,11,-56,25.96875,1.09277845318296,320,-0.147237978173568
"321",474,121650,0.2471485,11.0625,-56,25.90625,1.06754288301759,321,-0.181167132071228
"322",475,121650,0.24842875,11.03125,-56,25.9375,1.09277845318296,322,-0.151584770039713
"323",476,121650,0.24810875,11.4375,-56.03125,25.5625,1.08647079260658,323,-0.210176563843159
"324",477,121650,0.2471485,11.3125,-56.0625,25.4375,1.06754288301759,324,-0.224270570388633
"325",478,121650,0.248749,10.9375,-55.78125,26.625,1.09909104161918,325,-0.113332815256816
"326",479,121650,0.24458675,10.0625,-55.1875,27.8125,1.01704710338772,326,-0.0998650477302272
"327",480,121650,0.2458675,9.65625,-55.09375,28.03125,1.04229252927274,327,-0.0363762858350036
"328",481,121650,0.2420255,9.84375,-55.125,28,0.966561179477494,328,-0.126507592259271
"329",482,121650,0.242346,9.90625,-55.0625,27.96875,0.972878695773532,329,-0.131739506609815
"330",483,121650,0.242666,9.9375,-55,28,0.979186356349919,330,-0.130770326430105
"331",484,121650,0.24074525,9.78125,-55.03125,27.90625,0.941325609312121,331,-0.159450378558251
"332",485,121650,0.242986,9.9375,-55.125,27.9375,0.985494016926306,332,-0.118750972025126
"333",486,121650,0.24202575,10,-55.21875,27.71875,0.96656610733732,333,-0.148613249318114
"334",487,121650,0.24170575,10.1875,-55.46875,27.25,0.960258446760932,334,-0.178899065352974
"335",488,121650,0.23914475,-19.875,-30.96875,43.65625,0.909777450710535,335,1.2873544232837
"336",489,121650,0.24490725,-29.40625,-11.71875,55.375,1.02336461968375,336,1.40344256649205
"337",490,121650,0.242666,-28.78125,-9.78125,56.03125,0.979186356349919,337,1.2024387953298
"338",491,121650,0.2449075,-26.1875,-7.84375,57.6875,1.02336954754358,338,0.993043637585364
"339",492,121650,0.24202575,-28,-5.1875,57.28125,0.966566107337319,339,0.855398655200923
"340",493,121650,0.24330625,-16.09375,-4.21875,60.8125,0.991806605362518,340,0.0722456116838784
"341",494,121650,0.2417055,-20.75,-7.46875,59.5625,0.960253518901107,341,0.581478854245826
"342",495,121650,0.244267,-18.0625,-8.75,60.1875,1.01074437067115,342,0.55250650281645
"343",496,121650,0.242986,-17.125,-9.09375,60.28125,0.985494016926306,343,0.484329648890751
"344",497,121650,0.24298625,-16.03125,-9.375,60.8125,0.985498944786131,344,0.450373121232414
"345",498,121650,0.2436265,-16.59375,-9.5,60.53125,0.99811919379873,345,0.500343358070147
"346",499,121650,0.24490725,-16.375,-9.78125,60.6875,1.02336461968375,346,0.538771165338558
"347",500,121650,0.24330625,-16.40625,-9.75,60.59375,0.991806605362518,347,0.501743306699395
"348",501,121650,0.2429865,-16.78125,-9.8125,60.375,0.985503872645956,348,0.516903072383143
"349",502,121650,0.24490725,-17,-9.96875,60.1875,1.02336461968375,349,0.572757316740188
"350",503,121650,0.240745,-16.96875,-9.78125,60.3125,0.941320681452295,350,0.481527362667217
"351",504,121650,0.2452275,-16.90625,-10,60.21875,1.02967720811997,351,0.575846165762046
"352",505,121650,0.24234575,-17.21875,-9.9375,60.21875,0.972873767913706,352,0.539149055081543
"353",506,121650,0.2436265,-17.40625,-9.9375,60.21875,0.99811919379873,353,0.579290281860854
"354",507,121650,0.244587,-17.1875,-10,60.0625,1.01705203124754,354,0.576243898312249
"355",508,121650,0.2436265,-17.03125,-10,60.125,0.99811919379873,355,0.548626210219052
"356",509,121650,0.244267,-17.0625,-10,60.0625,1.01074437067115,356,0.560005703806338
"357",510,121650,0.2433065,-17.15625,-10,60,0.991811533222343,357,0.544792450037148
"358",511,121650,0.24874875,-17.21875,-10.3125,60.21875,1.09908611375935,358,0.693681432715527
"359",512,121650,0.24298625,-17.125,-10.3125,60.03125,0.985498944786131,359,0.561461412992597
"360",513,121650,0.2458675,-17.40625,-10.28125,60,1.04229252927274,360,0.63637453778785
"361",514,121650,0.24714825,-17.5,-10.09375,60.0625,1.06753795515776,361,0.658636164993372
"362",515,121650,0.24554725,-17.625,-10.09375,60,1.03597994083653,362,0.633280367834139
"363",516,121650,0.24490725,-17.4375,-10.4375,60,1.02336461968375,363,0.631729274926388
"364",517,121650,0.244907,-17.375,-10.5,60.03125,1.02335969182393,364,0.633343243783617
"365",518,121650,0.2461875,-17.3125,-10.25,60,1.04860018984913,365,0.632874295268065
"366",519,121650,0.24490725,-17.0625,-11.09375,60.0625,1.02336461968375,366,0.655226045534931
"367",520,121650,0.246828,-17.125,-11,60,1.06122536672155,367,0.687243734822882
"368",521,121650,0.24426675,-17.6875,-11,59.9375,1.01073944281133,368,0.677716896828005
"369",522,121650,0.2455475,-19.5625,-9.65625,59.71875,1.03598486869635,369,0.737391109061368
"370",523,121650,0.24554725,-19.6875,-9.96875,59.5,1.03597994083653,370,0.757867632935027
"371",524,121650,0.246828,-19.90625,-10,59.375,1.06122536672155,371,0.795394862310707
"372",525,121650,0.244587,-19.84375,-10,59.46875,1.01705203124754,372,0.751848735023219
"373",526,121650,0.24554725,-19.875,-10,59.34375,1.03597994083653,373,0.765802644559542
"374",527,121650,0.2461875,-19.65625,-10.40625,59.34375,1.04860018984913,374,0.791724493632841
"375",528,121650,0.2458675,-19.5625,-10.8125,59.28125,1.04229252927274,375,0.804920650279157
"376",529,121650,0.246508,-20.46875,-10.15625,59.0625,1.05491770614517,376,0.826933033824721
"377",530,121650,0.24522725,-21.0625,-10,59.03125,1.02967228026014,377,0.835193472476041
"378",531,121650,0.2474685,-21.5,-10,58.96875,1.07385054359398,378,0.910400287795697
"379",532,121650,0.24522725,-21.46875,-9.96875,58.96875,1.02967228026014,379,0.861379388330451
"380",533,121650,0.249069,-21.625,-9.90625,59.0625,1.10539870219556,380,0.950391447531004
"381",534,121650,0.24682825,-21.75,-10,59,1.06123029458138,381,0.919505265025909
"382",535,121650,0.2474685,-21.71875,-9.9375,59.03125,1.07385054359398,382,0.926787033641831
"383",536,121650,0.2455475,-21.65625,-10,59,1.03598486869635,383,0.886811938693741
"384",537,121650,0.2481085,-21.5,-10,59,1.08646586474675,384,0.924879767332231
"385",538,121650,0.2458675,-21.53125,-10,59,1.04229252927274,385,0.883189065340601
"386",539,121650,0.2477885,-21.5625,-9.96875,59,1.08015820417036,386,0.921177371071578
"387",540,121650,0.246828,-21.8125,-9.90625,59,1.06122536672155,387,0.917385596183761
"388",541,121650,0.2481085,-21.90625,-10,59,1.08646586474675,388,0.957154002603191
"389",542,121650,0.246508,-21.71875,-10,59,1.05491770614517,389,0.910710043107316
"390",543,121650,0.24746825,-22,-9.96875,58.84375,1.07384561573415,390,0.940300859469902
"391",544,121650,0.2477885,-22.125,-9.9375,58.90625,1.08015820417036,391,0.957912295954132
"392",545,121650,0.24938925,-22.09375,-9.84375,58.84375,1.11171129063177,392,0.976174424218556
"393",546,121650,0.24810875,-22,-9.96875,58.96875,1.08647079260658,393,0.96038266987737
"394",547,121650,0.24938925,-21.875,-9.96875,58.96875,1.11171129063177,394,0.975692633973042
"395",548,121650,0.24650825,-22,-9.875,59,1.05492263400499,395,0.92361866171246
"396",549,121650,0.2500295,-21.9375,-9.96875,59,1.12433153964437,396,0.995142308334165
"397",550,121650,0.2474685,-21.78125,-9.96875,59,1.07385054359398,397,0.93224814487186
"398",551,121650,0.2484285,-21.90625,-10.03125,58.9375,1.09277352532314,398,0.962093349061085
"399",552,121650,0.2458675,-21.8125,-9.5625,59,1.04229252927274,399,0.872492729595636
"400",553,121650,0.2481085,-21.90625,-9.96875,59,1.08646586474675,400,0.954793999954162
"401",554,121650,0.248429,-21.90625,-9.9375,59,1.09278338104279,401,0.958751513601172
"402",555,121650,0.2500295,-22.03125,-9.65625,59,1.12433153964437,402,0.978990182291026
"403",556,121650,0.24874875,-22,-9.03125,59,1.09908611375935,403,0.904062069943054
"404",557,121650,0.25034975,-22.28125,-9.125,58.9375,1.13064412808059,404,0.961315476785284
"405",558,121650,0.249389,-22.03125,-9.09375,59,1.11170636277195,405,0.923884957736089
"406",559,121650,0.248749,-22.03125,-9.46875,59,1.09909104161918,406,0.939589668371656
"407",560,121650,0.249069,-22.0625,-9.0625,59,1.10539870219556,407,0.917699927993057
"408",561,121650,0.24938925,-22.03125,-9.34375,59,1.11171129063177,408,0.942769906788142
"409",562,121650,0.24938925,-22,-9.53125,59,1.11171129063177,409,0.954447289199933
"410",563,121650,0.2481085,-22.03125,-9.5,59,1.08646586474675,410,0.92932449414826
"411",564,121650,0.2503495,-22.03125,-9.0625,59,1.13063920022076,411,0.940457792535874
"412",565,121650,0.2481085,-22.1875,-9.34375,58.78125,1.08646586474675,412,0.9168885396287
"413",566,121650,0.25195,-21.1875,-9.9375,59.0625,1.16218735882235,413,0.974783238053477
"414",567,121650,0.249069,-21.90625,-9.53125,58.96875,1.10539870219556,414,0.938822641932817
"415",568,121650,0.24906875,-21.96875,-9.65625,59,1.10539377433574,415,0.955087150017625
"416",569,121650,0.249069,-22,-10,59,1.10539870219556,416,0.983534740499147
"417",570,121650,0.249069,-21.90625,-9.25,59,1.10539870219556,417,0.919446776475322
"418",571,121650,0.24970925,-21.9375,-9.78125,59,1.11801895120816,418,0.974669704003782
"419",572,121650,0.24906875,-21.9375,-9.90625,59,1.10539377433574,419,0.971484537727472
"420",573,121650,0.2503495,-21.78125,-9.59375,58.96875,1.13063920022076,420,0.958852611326544
"421",574,121650,0.24746825,-21.71875,-9.65625,59,1.07384561573415,421,0.903677923556991
"422",575,121650,0.25163025,-21.78125,-9.96875,59,1.15588462610579,422,1.01428222738367
"423",576,121650,0.24650825,-21.65625,-9.90625,58.96875,1.05492263400499,423,0.896805537671531
"424",577,121650,0.249069,-21.84375,-9.71875,59,1.10539870219556,424,0.949881549245982
"425",578,121650,0.2474685,-21.8125,-10,59,1.07385054359398,425,0.937090781003271
"426",579,121650,0.2481085,-21.78125,-10,59,1.08646586474675,426,0.947223468673664
"427",580,121650,0.249389,-21.78125,-9.8125,59,1.11170636277195,427,0.958303950804692
"428",581,121650,0.248749,-21.78125,-9.9375,58.9375,1.09909104161918,428,0.95140032348051
"429",582,121650,0.26187475,-3.96875,-17.3125,56.65625,1.35781846602702,429,0.215903726087106
"430",583,121650,0.26827725,-5,-18.21875,53.3125,1.48402095615302,430,0.29300825089111
"431",584,121650,0.2503495,-42.5625,-4.96875,47.4375,1.13063920022076,431,1.57264904144628
"432",585,121650,0.25130975,-46.6875,-11.1875,42.6875,1.14956710980975,432,2.10557302353463
"433",586,121650,0.25163025,-47.625,-10.3125,42,1.15588462610579,433,2.07927798568658
"434",587,121650,0.25195,-47.21875,-9.15625,42.875,1.16218735882235,434,2.01818281986343
"435",588,121650,0.24938925,-46.0625,-9.46875,43.84375,1.11171129063177,435,1.95723824921161
"436",589,121650,0.25130975,-46.65625,-9.5625,43.34375,1.14956710980975,436,2.01951757836175
"437",590,121650,0.25066975,-46.96875,-9.5,43,1.13695178865697,437,2.00650284451336
"438",591,121650,0.25130975,-46.78125,-9.5,43,1.14956710980975,438,2.00422236477185
"439",592,121650,0.25066975,-46.65625,-9.59375,43.15625,1.13695178865697,439,1.99807730955543
"440",593,121650,0.2503495,-46.8125,-9.5625,43.15625,1.13063920022076,440,2.0018178858821
"441",594,121650,0.25195025,-46.78125,-9.375,43.125,1.16219228668217,441,2.0148641645832
"442",595,121650,0.25099,-46.84375,-9.5625,43.0625,1.14326437709319,442,2.01133322108563
"443",596,121650,0.25163,-48.375,-9.75,41.375,1.15587969824596,443,2.05909304604618
"444",597,121650,0.25163,-48.96875,-10,41,1.15587969824596,444,2.10277320279853
"445",598,121650,0.2503495,-48.625,-10,41.0625,1.13063920022076,445,2.05395205323465
"446",599,121650,0.25066975,-48.625,-10,41.09375,1.13695178865697,446,2.06212880005462
"447",600,121650,0.2500295,-48.15625,-10,41.3125,1.12433153964437,447,2.02531815749263
"448",601,121650,0.25098975,-48.5,-10,41.15625,1.14325944923336,448,2.06223424346901
"449",602,121650,0.25163,-48.53125,-10,41.0625,1.15587969824596,449,2.07174465081271
"450",603,121650,0.24906925,-47.84375,-10,41.8125,1.10540363005539,450,2.01139044722
"451",604,121650,0.25195,-46.84375,-9.9375,43.125,1.16218735882235,451,2.06230455137065
"452",605,121650,0.2506695,-47.65625,-10,42.125,1.13694686079715,452,2.04667946090508
"453",606,121650,0.24778825,-43.3125,-15.09375,41.6875,1.08015327631054,453,2.00338203678643
"454",607,121650,0.2481085,-27.5625,-9.46875,57.8125,1.08646586474675,454,1.29555259929784
"455",608,121650,0.246508,-27.3125,-10.625,56.5,1.05491770614517,455,1.2531688187333
"456",609,121650,0.2477885,-23.84375,-9.96875,58.03125,1.08015820417036,456,1.04462070538884
"457",610,121650,0.24522725,-11.71875,-3.59375,62.28125,1.02967228026014,457,-0.197042009895711
"458",611,121650,0.24714825,-15.5625,-4.625,61.15625,1.06753795515776,458,0.156957968937381
"459",612,121650,0.246508,-16.78125,-4.78125,61,1.05491770614517,459,0.243639647063993
"460",613,121650,0.246508,-17.03125,-5.0625,60.96875,1.05491770614517,460,0.28287658038054
"461",614,121650,0.24714825,-17.125,-5.25,61,1.06753795515776,461,0.318968904118214
"462",615,121650,0.24586775,-16.9375,-5.75,60.96875,1.04229745713257,462,0.314728489199422
"463",616,121650,0.2474685,-20.125,-4.6875,60.1875,1.07385054359398,463,0.472666141202755
"464",617,121650,0.246508,-19.3125,-5.125,60.40625,1.05491770614517,464,0.435273978984748
"465",618,121650,0.24682825,-20.84375,-5,60,1.06123029458138,465,0.529561538472648
"466",619,121650,0.2474685,-20.75,-5,60.03125,1.07385054359398,466,0.536598045421863
"467",620,121650,0.2458675,-20.59375,-5,60,1.04229252927274,467,0.490762705304959
"468",621,121650,0.24714825,-20.78125,-5.03125,60,1.06753795515776,468,0.5332639347333
"469",622,121650,0.24746825,-20.59375,-5.09375,60,1.07384561573415,469,0.529395799713455
"470",623,121650,0.24682825,-20,-5.9375,60,1.06123029458138,470,0.533330513919201
"471",624,121650,0.24874875,-20,-6,60,1.09908611375935,471,0.575906338395232
"472",625,121650,0.246828,-19.0625,-6.34375,60.28125,1.06122536672155,472,0.506304041479149
"473",626,121650,0.246508,-17.03125,-6.90625,60.9375,1.05491770614517,473,0.420252578289455
"474",627,121650,0.2477885,-16.6875,-6.6875,60.9375,1.08015820417036,474,0.401664089465258
"475",628,121650,0.246508,-16.78125,-7,61,1.05491770614517,475,0.411199835145011
"476",629,121650,0.24874875,-17,-7,61,1.09908611375935,476,0.472746677135866
"477",630,121650,0.2458675,-17.15625,-6.8125,60.8125,1.04229252927274,477,0.403021293864428
"478",631,121650,0.24778825,-17.40625,-6.875,60.9375,1.08015327631054,478,0.472919747594376
"479",632,121650,0.24842875,-17.3125,-6.96875,60.90625,1.09277845318296,479,0.483312873582983
"480",633,121650,0.24650825,-17.21875,-6.875,60.84375,1.05492263400499,480,0.427200829243259
"481",634,121650,0.24970925,-17.0625,-7,60.96875,1.11801895120816,481,0.494780623165681
"482",635,121650,0.2474685,-17.375,-6.5625,60.90625,1.07385054359398,482,0.438670196521389
"483",636,121650,0.248429,-17.28125,-6.5,60.90625,1.09278338104279,483,0.445435128225001
"484",637,121650,0.2497095,-17.1875,-6.96875,60.9375,1.11802387906799,484,0.500491923922241
"485",638,121650,0.25195025,-17.15625,-7,60.875,1.16219228668217,485,0.540809383935553
"486",639,121650,0.248429,-17.125,-6.9375,60.96875,1.09278338104279,486,0.469790314667011
"487",640,121650,0.248429,-17.21875,-6.65625,60.96875,1.09278338104279,487,0.455998191272902
"488",641,121650,0.24682825,-17.09375,-6.96875,60.84375,1.06123029458138,488,0.430657963837205
"489",642,121650,0.24970925,-17.1875,-6.9375,60.875,1.11801895120816,489,0.494398676645865
"490",643,121650,0.246508,-17.25,-7,60.90625,1.05491770614517,490,0.44284686222945
"491",644,121650,0.246828,-17.15625,-6.9375,60.9375,1.06122536672155,491,0.438850775444395
"492",645,121650,0.248749,-17.34375,-7,60.96875,1.09909104161918,492,0.498196414918128
"493",646,121650,0.24810875,-17.75,-6.90625,60.90625,1.08647079260658,493,0.507042076461879
"494",647,121650,0.2497095,-18.0625,-6.65625,60.59375,1.11802387906799,494,0.525899892717268
"495",648,121650,0.2484285,-18.09375,-6.9375,60.65625,1.09277352532314,495,0.528100513063579
"496",649,121650,0.24842875,-18.21875,-6.9375,60.59375,1.09277845318296,496,0.534307658085407
"497",650,121650,0.249389,-18,-7,60.59375,1.11170636277195,497,0.54057713859578
"498",651,121650,0.25067,-18,-7,60.71875,1.1369567165168,498,0.573284125875673
"499",652,121650,0.248749,-18.125,-7.03125,60.5625,1.09909104161918,499,0.5383881956378
"500",653,121650,0.24842875,-18,-6.78125,60.65625,1.09277845318296,500,0.508857527231117
"501",654,121650,0.248749,-18.09375,-6.25,60.5625,1.09909104161918,501,0.47690549592971
"502",655,121650,0.24842875,-18,-6.3125,60.6875,1.09277845318296,502,0.47532164587945
"503",656,121650,0.24714825,-18.15625,-6.40625,60.625,1.06753795515776,503,0.465846006445724
"504",657,121650,0.248749,-18.09375,-6.09375,60.46875,1.09909104161918,504,0.459513007533287
"505",658,121650,0.2481085,-18.0625,-6.75,60.53125,1.08646586474675,505,0.497693569575596
"506",659,121650,0.248429,-18,-6.96875,60.71875,1.09278338104279,506,0.526750787752634
"507",660,121650,0.25131,-18.0625,-6.8125,60.59375,1.14957203766957,507,0.569248064563996
"508",661,121650,0.248749,-18,-6.5625,60.5,1.09909104161918,508,0.489329305205326
"509",662,121650,0.2503495,-18,-6.96875,60.6875,1.13063920022076,509,0.562742448546845
"510",663,121650,0.24970925,-18,-7,60.78125,1.11801895120816,510,0.558074677334559
"511",664,121650,0.24810875,-17.96875,-6.96875,60.6875,1.08647079260658,511,0.516091407450279
"512",665,121650,0.25066975,-18,-7,60.71875,1.13695178865697,512,0.573279198015847
"513",666,121650,0.24874875,-18,-7,60.59375,1.09908611375935,513,0.527956889583181
"514",667,121650,0.24970925,-18,-7,60.65625,1.11801895120816,514,0.550618043799515
"515",668,121650,0.25002925,-17.09375,-7.125,60.71875,1.12432661178455,515,0.498097660750474
"516",669,121650,0.24970925,-16.625,-7.03125,61,1.11801895120816,516,0.464247915445128
"517",670,121650,0.2506695,-16.78125,-7.03125,60.90625,1.13694686079715,517,0.489996517294739
"518",671,121650,0.253551,-17,-7,60.96875,1.19374537314358,518,0.565541778136339
"519",672,121650,0.25098975,-17,-7,61,1.14325944923336,519,0.516920012609877
"520",673,121650,0.25098975,-16.96875,-7.15625,60.875,1.14325944923336,520,0.518780758837593
"521",674,121650,0.24874875,-17.21875,-6.9375,61.03125,1.09908611375935,521,0.48726926459824
"522",675,121650,0.25163,-17,-7,60.9375,1.15587969824596,522,0.525811944854955
"523",676,121650,0.24874875,-17.0625,-7,60.71875,1.09908611375935,523,0.460934518646783
"524",677,121650,0.249389,-17,-7,60.9375,1.11170636277195,524,0.481638609380945
"525",678,121650,0.24970925,-17.53125,-6.84375,60.84375,1.11801895120816,525,0.512763478621215
"526",679,121650,0.24874875,-17.78125,-7,60.8125,1.09908611375935,526,0.523627563892838
"527",680,121650,0.25130975,-17.78125,-7,60.84375,1.14956710980975,527,0.575972718326997
"528",681,121650,0.249389,-18.0625,-6.625,60.9375,1.11170636277195,528,0.53772811599357
"529",682,121650,0.25066975,-17.4375,-6.90625,60.65625,1.13695178865697,529,0.517783470618377
"530",683,121650,0.25034975,-17.3125,-7,60.8125,1.13064412808059,530,0.517946075978352
"531",684,121650,0.2506695,-16.96875,-7,60.875,1.13694686079715,531,0.50066815715624
"532",685,121650,0.25227,-17.59375,-7.0625,60.65625,1.16849501939873,532,0.573539882017186
"533",686,121650,0.24906925,-17.78125,-7,60.53125,1.10540363005539,533,0.513167654735031
"534",687,121650,0.25227025,-17.3125,-7.09375,60.71875,1.16849994725856,534,0.557289427952128
"535",688,121650,0.24938925,-17.3125,-6.625,60.71875,1.11171129063177,535,0.465100731589916
"536",689,121650,0.2509895,-16.9375,-6.78125,60.96875,1.14325452137354,536,0.493565640858328
"537",690,121650,0.25355075,-17.625,-6.78125,60.5625,1.19374044528376,537,0.574435442392052
"538",691,121650,0.25163,-17.125,-7.03125,60.78125,1.15587969824596,538,0.528781689514704
"539",692,121650,0.2532305,-15.875,-7.625,60.6875,1.18742785684755,539,0.500272084001289
"540",693,121650,0.2525905,-17.21875,-7.71875,60.8125,1.17481253569477,540,0.608946644073045
"541",694,121650,0.25163,-17.03125,-8,60.875,1.15587969824596,541,0.600086346338722
"542",695,121650,0.25195025,-17.15625,-7.4375,60.75,1.16219228668217,542,0.566392787486906
"543",696,121650,0.25002925,-18.28125,-6.1875,60.59375,1.12432661178455,543,0.514181020075074
"544",697,121650,0.25259025,-18.375,-6,60.46875,1.17480760783495,544,0.550493267143404
"545",698,121650,0.25163,-18.375,-6,60.5625,1.15587969824596,545,0.5371578327057
"546",1042,121650,0.175063,-64.625,-5.6875,7.8125,-0.35336607472974,546,-0.468089764623915
"547",1043,121650,0.17090125,-64.5625,-7.34375,2.15625,-0.435400157241548,547,-0.767421641162676
"548",1044,121650,0.16898075,-63.78125,-10.125,6.78125,-0.473255976419521,548,-0.381407620840067
"549",1045,121650,0.1677,-54.5625,-21,21.40625,-0.498501402304544,549,0.5546771214343
"550",1046,121650,0.17058125,-41.59375,-23.21875,42.75,-0.441707817817935,550,1.02195817492223
"551",1047,121650,0.17154175,-43,-22.6875,41.96875,-0.422774980369123,551,1.0658855144507
"552",1048,121650,0.169941,-43.25,-23,41.34375,-0.454328066830534,552,1.04051035466341
"553",1049,121650,0.16673975,-43.25,-23,41.0625,-0.517429311893531,553,0.960631684146566
"554",1050,121650,0.16834025,-43,-23.09375,41.15625,-0.485881153291945,554,0.984991257987467
"555",1051,121650,0.16609925,-43.03125,-23.125,41.09375,-0.530054488765956,555,0.941932241877345
"556",1052,121650,0.16545875,-43.59375,-23.125,40.96875,-0.54267966563838,556,0.966537834152744
"557",1053,121650,0.1677,-43.96875,-23.65625,40.5625,-0.498501402304544,557,1.05639368531975
"558",1054,121650,0.1622575,-43.53125,-24,40.96875,-0.605780910701377,558,0.964551396297779
"559",1055,121650,0.16609925,-43.40625,-24,40.96875,-0.530054488765955,559,1.03034728430367
"560",1056,121650,0.16609925,-43.46875,-24,40.78125,-0.530054488765956,560,1.02412760096587
"561",1057,121650,0.162898,-44,-23.75,40,-0.593155733828952,561,0.937747144317114
"562",1058,121650,0.16385825,-43.90625,-24,40.25,-0.574227824239966,562,0.983020441721269
"563",1059,121650,0.16129725,-43.875,-24,40.40625,-0.624708820290363,563,0.939377604107294
"564",1060,121650,0.163218,-43.6875,-24,40.5,-0.586848073252565,564,0.967935025402087
"565",1061,121650,0.15937625,-43.9375,-24,40.125,-0.662574495187986,565,0.889699770720588
"566",1062,121650,0.16001675,-44,-24,40.03125,-0.649949318315562,566,0.901697739406494
"567",1063,121650,0.161297,-43.71875,-24,40.375,-0.624713748150188,567,0.925095350451801
"568",1064,121650,0.15905625,-43.59375,-24,40.5,-0.668882155764373,568,0.878453042443135
"569",1065,121650,0.16161725,-43.96875,-24,40.0625,-0.618401159713976,569,0.932627422909458
"570",1066,121650,0.158416,-43.96875,-24,40.0625,-0.681502404776973,570,0.869526177846461
"571",1067,121650,0.1577755,-43.84375,-24,40.3125,-0.694127581649397,571,0.861883734114598
"572",1068,121650,0.15777575,-43.84375,-24,40.15625,-0.694122653789572,572,0.852567870055619
"573",1069,121650,0.154574,-44,-24,40,-0.757233754572219,573,0.792549144766075
"574",1070,121650,0.158736,-43.9375,-24,40,-0.675194744200585,574,0.869622888172945
"575",1071,121650,0.15425375,-43.53125,-24.03125,40.1875,-0.763546343008431,575,0.762542007045734
"576",1072,121650,0.15649525,-42.875,-24.375,40.8125,-0.719363151814771,576,0.817833091923911
"577",1073,121650,0.15809575,-35.5,-24.375,46.90625,-0.687814993213185,577,0.626990633516826
"578",1074,121650,0.15681525,-44.25,-18.0625,42.90625,-0.713055491238383,578,0.581554702333318
"579",1075,121650,0.15745575,-44,-18.9375,42.53125,-0.700430314365959,579,0.618028984914356
"580",1076,121650,0.1529735,-44,-19,42.625,-0.788781913173805,580,0.539989866555849
"581",1077,121650,0.15713525,-44,-19.15625,42.46875,-0.706747830661996,581,0.624503170393996
"582",1078,121650,0.1555345,-44.65625,-19,42,-0.738300917123407,582,0.605322998061042
"583",1079,121650,0.156175,-44.09375,-19.8125,42.3125,-0.725675740250983,583,0.653262424962946
"584",1080,121650,0.15617475,-44,-19.875,42.34375,-0.725680668110808,584,0.652393760337796
"585",1081,121650,0.153614,-44,-20,42.46875,-0.77615673630138,585,0.618814336278379
"586",1082,121650,0.158096,-44.21875,-19.75,42.0625,-0.687810065353359,586,0.681425361421953
"587",1083,121650,0.15297375,-44.5,-19.9375,41.96875,-0.788776985313979,587,0.611369683545653
"588",1084,121650,0.156175,-44.53125,-20,41.96875,-0.725675740250983,588,0.681673567389088
"589",1085,121650,0.1532935,-44.1875,-20,42,-0.782474252597418,589,0.599430245120219
"590",1086,121650,0.15233325,-44.46875,-19.96875,42,-0.801402162186404,590,0.600486034223638
"591",1087,121650,0.15361375,-45,-19.53125,41.875,-0.776161664161205,591,0.627434630827879
"592",1088,121650,0.149452,-44.59375,-20,42,-0.858195746673013,592,0.555982986315581
"593",1089,121650,0.15201325,-44.09375,-20,42,-0.807709822762791,593,0.566746774507701
"594",1090,121650,0.15201325,-44.1875,-19.96875,41.96875,-0.807709822762791,594,0.569970513922055
"595",1091,121650,0.14977225,-45,-19.0625,41.625,-0.851883158236801,595,0.501399829946771
"596",1092,121650,0.1507325,-44.84375,-19.25,41.96875,-0.832955248647815,596,0.542580330239389
"597",1093,121650,0.15009225,-44.6875,-19,42,-0.845575497660414,597,0.500531051006417
"598",1094,121650,0.1529735,-44.59375,-19,42,-0.788781913173805,598,0.549876735045881
"599",1095,121650,0.15137275,-45,-19.03125,41.875,-0.820334999635216,599,0.545501252969414
"600",1096,121650,0.149452,-44.90625,-19.03125,42,-0.858195746673013,600,0.507649239019515
"601",1097,121650,0.15137275,-44.625,-19.125,42,-0.820334999635216,601,0.530246292662967
"602",1098,121650,0.1500925,-44.65625,-19.125,42,-0.845570569800589,602,0.507493355979975
"603",1099,121650,0.149132,-45,-19,41.75,-0.8645034072494,603,0.491516209171158
"604",1100,121650,0.1504125,-45,-19.03125,41.9375,-0.839262909224202,604,0.530301660147949
"605",1101,121650,0.1500925,-44.96875,-19.0625,42,-0.845570569800589,605,0.527599685505732
"606",1102,121650,0.1488115,-44.75,-19.28125,42,-0.870820923545438,606,0.501490915927411
"607",1103,121650,0.14977225,-43.90625,-20.28125,40.6875,-0.851883158236801,607,0.450623009862706
"608",1104,121650,0.14400975,-61.21875,-9.21875,19.78125,-0.96547032721002,608,-0.370148106363195
"609",1105,121650,0.14913175,-37.5,-5.6875,51.375,-0.864508335109226,609,-0.535521100747994
"610",1106,121650,0.149772,-26.15625,-10.1875,57.3125,-0.851888086096626,610,-0.730066331465224
"611",1107,121650,0.14881175,-27,-11.0625,56.90625,-0.870815995685613,611,-0.640117121846008
"612",1108,121650,0.14977225,-27.3125,-11,56.78125,-0.851883158236801,612,-0.608534588406479
"613",1109,121650,0.14785125,-27.125,-10.90625,56.875,-0.889748833134424,613,-0.662783596994195
"614",1110,121650,0.14849175,-26.71875,-10.96875,57,-0.877123656262,614,-0.670256016559629
"615",1111,121650,0.1529735,-26.5625,-10.59375,57.03125,-0.788781913173805,615,-0.620783314287923
"616",1112,121650,0.1459305,-26.6875,-11,57,-0.927609580172222,616,-0.720864571303204
"617",1113,121650,0.15137275,-26.5625,-10.96875,57,-0.820334999635216,617,-0.625880527344753
"618",1114,121650,0.15009225,-26.59375,-10.875,56.96875,-0.845575497660414,618,-0.657582558218415
"619",1115,121650,0.14945175,-26.53125,-10.84375,57,-0.858200674532839,619,-0.67566884632087
"620",1116,121650,0.152333,-25.375,-10.9375,57.3125,-0.801407090046229,620,-0.685011108897683
"621",1117,121650,0.14977225,-23.3125,-11,58.0625,-0.851883158236801,621,-0.849881180417113
"622",1118,121650,0.149772,-23.09375,-10.8125,58.21875,-0.851888086096626,622,-0.872103766628975
"623",1119,121650,0.14881175,-23.25,-10.9375,58.125,-0.870815995685613,623,-0.874770973361224
"624",1120,121650,0.1481715,-23.96875,-11,58,-0.883436244698212,624,-0.833027280516034
"625",1121,121650,0.1504125,-23.90625,-10.9375,58.0625,-0.839262909224202,625,-0.794810900537324
"626",1122,121650,0.1478515,-23.28125,-11,58.125,-0.889743905274599,626,-0.886496244169771
"627",1123,121650,0.14945175,-23.8125,-11,58,-0.858200674532839,627,-0.820204877762568
"628",1124,121650,0.14977225,-23.40625,-11,58.03125,-0.851883158236801,628,-0.844297438353729
"629",1125,121650,0.14529025,-23.25,-11,58.03125,-0.940229829184822,629,-0.945057276713657
"630",1126,121650,0.14913175,-23.28125,-11,58,-0.864508335109226,630,-0.86871730753944
"631",1127,121650,0.14881175,-23.21875,-11.09375,58.15625,-0.870815995685613,631,-0.863589435214702
"632",1128,121650,0.14881175,-23.03125,-11.0625,58.0625,-0.870815995685613,632,-0.8864377139093
"633",1129,121650,0.149772,-22.625,-11.1875,58.1875,-0.851888086096626,633,-0.882887395460116
"634",1130,121650,0.147211,-22.90625,-11,58.03125,-0.902369082147024,634,-0.934505497982055
"635",1131,121650,0.149772,-23.25,-11,58.0625,-0.851888086096626,635,-0.8548513752417
"636",1132,121650,0.1504125,-23.09375,-11.21875,58.1875,-0.839262909224202,636,-0.830662713702939
"637",1133,121650,0.1504125,-23.28125,-11.09375,58,-0.839262909224202,637,-0.836391873707331
"638",1134,121650,0.1532935,-23.375,-11.09375,58,-0.782474252597418,638,-0.772155316633401
"639",1135,121650,0.14785125,-23.125,-11.03125,58,-0.889748833134424,639,-0.904010970327518
"640",1136,121650,0.14721075,-23.15625,-11,58,-0.902374010006849,640,-0.916513516366589
"641",1137,121650,0.152013,-23.1875,-11,58.03125,-0.807714750622616,641,-0.817507465116214
"642",1138,121650,0.15265325,-23.0625,-11,58,-0.795094501610017,642,-0.816681908416901
"643",1139,121650,0.154254,-23.09375,-11,58.0625,-0.763541415148606,643,-0.778917871705587
"644",1140,121650,0.1529735,-23.0625,-11,58,-0.788781913173805,644,-0.810369319980689
"645",1141,121650,0.15137275,-23.09375,-11,58,-0.820334999635216,645,-0.839439772959717
"646",1142,121650,0.15553475,-23.03125,-11,58.0625,-0.738295989263582,646,-0.758637712785325
"647",1143,121650,0.154254,-23.0625,-11,58.03125,-0.763541415148606,647,-0.783264663571731
"648",1144,121650,0.15521475,-23.25,-11,58,-0.744603649839969,648,-0.751295255752564
"649",1145,121650,0.1574555,-23.09375,-11,58.09375,-0.700435242225784,649,-0.713947540399004
"650",1146,121650,0.1529735,-23.15625,-11,58.09375,-0.788781913173805,650,-0.797328944382263
"651",1147,121650,0.15617525,-23.03125,-10.5625,58.125,-0.725670812391157,651,-0.775324256231779
"652",1148,121650,0.149772,-23.1875,-10.8125,58.0625,-0.851888086096627,652,-0.873976658100633
"653",1149,121650,0.15297375,-23.53125,-11,58.03125,-0.788776985313979,653,-0.771260731501381
"654",1150,121650,0.1504125,-23.3125,-10.90625,58.0625,-0.839262909224202,654,-0.844340939351599
"655",1151,121650,0.1481715,-23.84375,-10.5625,58.03125,-0.883436244698212,655,-0.874133693148199
"656",1152,121650,0.1504125,-23.625,-11,58,-0.839262909224202,656,-0.816162913348219
"657",1153,121650,0.14561025,-23.625,-11,58.0625,-0.933922168608435,657,-0.907093855964931
"658",1154,121650,0.14913175,-23.53125,-11,58,-0.864508335109226,658,-0.848856239680387
"659",1155,121650,0.14753125,-23.8125,-11,58,-0.896056493710812,659,-0.858060696940541
"660",1156,121650,0.14849175,-23.53125,-11.0625,57.9375,-0.877123656262,660,-0.860479872302628
"661",1157,121650,0.149452,-23.59375,-11,58,-0.858195746673013,661,-0.837578384279413
"662",1158,121650,0.1465705,-23.6875,-10.96875,58.03125,-0.914994259019448,662,-0.887424840443972
"663",1159,121650,0.14945175,-23.8125,-11,58,-0.858200674532839,663,-0.820204877762568
"664",1160,121650,0.147531,-23.78125,-11,58,-0.896061421570637,664,-0.860548258282748
"665",1161,121650,0.1446495,-23.34375,-11.03125,58.125,-0.952859933917071,665,-0.942287003198453
"666",1162,121650,0.147531,-23.78125,-11,58,-0.896061421570637,666,-0.860548258282748
"667",1163,121650,0.14625025,-23.34375,-11,58.03125,-0.92130684745566,667,-0.918686394537351
"668",1164,121650,0.1459305,-23.34375,-11.03125,58,-0.927609580172222,668,-0.924493282988646
"669",1165,121650,0.147211,-23.4375,-11,58,-0.902369082147024,669,-0.89416488716533
"670",1166,121650,0.14593025,-23.53125,-11,58,-0.927614508032048,670,-0.911962412603209
"671",1167,121650,0.14753125,-23.625,-11,58,-0.896056493710812,671,-0.872956497834829
"672",1168,121650,0.14593025,-23.5,-11,58,-0.927614508032048,672,-0.914445046085591
"673",1169,121650,0.1456105,-23.5,-11,58.03125,-0.933917240748609,673,-0.918883620418393
"674",1170,121650,0.14753125,-23.375,-11,58.03125,-0.896056493710812,674,-0.89095340731012
"675",1171,121650,0.14497,-23.21875,-11,58,-0.946542417621034,675,-0.955716657016011
"676",1172,121650,0.147531,-23.3125,-11,58.09375,-0.896061421570637,676,-0.892195285367188
"677",1173,121650,0.146891,-23.8125,-11.09375,58.03125,-0.908676742723411,677,-0.861736779622295
"678",1174,121650,0.14561025,-23.6875,-11.875,58,-0.933922168608435,678,-0.839776831594894
"679",1175,121650,0.14689075,-23.59375,-11.9375,58,-0.908681670583236,679,-0.817264228718784
"680",1176,121650,0.1440095,-23.90625,-11.6875,58,-0.965475255069846,680,-0.868111499573807
"681",1177,121650,0.14881175,-23.75,-11.59375,58,-0.870815995685613,681,-0.792945415548566
"682",1178,121650,0.14336925,-23.71875,-11.96875,58,-0.978095504082445,682,-0.874387525639438
"683",1179,121650,0.14657075,-23.6875,-11.6875,58,-0.914989331159623,683,-0.835004010040253
"684",1180,121650,0.146571,-23.6875,-11.375,58.03125,-0.914984403299798,684,-0.856734950286952
"685",1181,121650,0.143049,-23.78125,-11.75,58,-0.984408092518657,685,-0.892254865654088
"686",1182,121650,0.147211,-23.8125,-11.9375,58,-0.902369082147024,686,-0.793573205905902
"687",1183,121650,0.1417685,-23.8125,-11.34375,58,-1.00964859054386,687,-0.945692764634273
"688",1184,121650,0.1440095,-23.90625,-11.875,58,-0.965475255069846,688,-0.853951483679636
"689",1185,121650,0.1436895,-23.4375,-12,58,-0.971782915646233,689,-0.88805863589563
"690",1186,121650,0.14368975,-23.46875,-12,58,-0.971777987786407,690,-0.885571074553422
"691",1187,121650,0.14432975,-23.53125,-11.875,58,-0.959162666633633,691,-0.877430497031999
"692",1188,121650,0.14208875,-23.28125,-11.96875,58,-1.00333600210764,692,-0.934384892417977
"693",1189,121650,0.1459305,-23.46875,-11.9375,58,-0.927609580172222,693,-0.846122672237295
"694",1190,121650,0.14240875,-23.21875,-11.84375,58,-0.997028341531256,694,-0.942482509402467
"695",1191,121650,0.14304925,-23.5,-12,58,-0.984403164658832,695,-0.895713617943466
"696",1192,121650,0.14176875,-23.4375,-12,58,-1.00964366268403,696,-0.925919382933428
"697",1193,121650,0.14272925,-23.25,-12,58,-0.990710825235219,697,-0.921882346378904
"698",1194,121650,0.1456105,-23.375,-11.96875,58,-0.933917240748609,698,-0.857518230611798
"699",1195,121650,0.142409,-23.375,-12,58,-0.997023413671431,699,-0.918264400885591
"700",1196,121650,0.14464975,-23.40625,-11.65625,58,-0.952855006057246,700,-0.897573388928338
"701",1197,121650,0.14176875,-23.8125,-11.34375,58,-1.00964366268403,701,-0.945687836774448
"702",1198,121650,0.14240875,-24.4375,-11.4375,57.75,-0.997028341531256,702,-0.891253105097047
"703",1199,121650,0.14144825,-25.40625,-11.15625,57.21875,-1.01596117898007,703,-0.886155020957221
"704",1200,121650,0.140168,-26.21875,-11,57.0625,-1.04119674914544,704,-0.867962925744624
"705",1201,121650,0.14272875,-28.375,-11.6875,55.96875,-0.990720680954869,705,-0.659510632422733
"706",1202,121650,0.14048775,-29.34375,-11.21875,55.5,-1.03489401642888,706,-0.690084745434758
"707",1203,121650,0.1414485,-28.03125,-11.28125,56.15625,-1.01595625112024,707,-0.731550255029109
"708",1204,121650,0.14272925,-28.625,-10.34375,56.1875,-0.990710825235219,708,-0.728070714065931
"709",1205,121650,0.14016775,-29.40625,-8.8125,56,-1.04120167700527,709,-0.843320808881395
"710",1206,121650,0.14368925,-30.375,-9.21875,55.46875,-0.971787843506058,710,-0.697955995514929
"711",1207,121650,0.13984775,-31.125,-9.40625,55.03125,-1.04750933758165,711,-0.726032487491848
"712",1208,121650,0.1411285,-31,-9.84375,55,-1.02226391169663,712,-0.679541716833713
"713",1209,121650,0.13888725,-30.9375,-10,54.96875,-1.06644217503047,713,-0.718749392270931
"714",1210,121650,0.139848,-30.90625,-10,55,-1.04750440972183,714,-0.700430102060913
"715",1211,121650,0.14240875,-30.78125,-10,55.125,-0.997028341531256,715,-0.652427934264824
"716",1212,121650,0.13888725,-31.28125,-9.96875,54.90625,-1.06644217503047,716,-0.697528743381286
"717",1213,121650,0.14112825,-35.40625,-9.125,52.84375,-1.02226883955646,717,-0.5124023130849
"718",1214,121650,0.1414485,-35.4375,-9.15625,52.9375,-1.01595625112024,718,-0.495654613365997
"719",1215,121650,0.13984775,-35.625,-9.09375,52.84375,-1.04750933758165,719,-0.522624379382458
"720",1216,121650,0.142409,-35.28125,-9.0625,52.9375,-0.997023413671431,720,-0.496214951276177
"721",1217,121650,0.137607,-35.15625,-9.125,52.96875,-1.09167774519584,721,-0.594215653048291
"722",1218,121650,0.14144825,-35.03125,-9.0625,53,-1.01596117898007,722,-0.531285467676345
"723",1219,121650,0.139848,-35.03125,-9.125,53,-1.04750440972183,723,-0.558108693120048
"724",1220,121650,0.1392075,-34.53125,-9.15625,53.15625,-1.06012958659425,724,-0.598775211142743
"725",1221,121650,0.14112825,-34.71875,-8.03125,53.3125,-1.02226883955646,725,-0.621657966656875
"726",1222,121650,0.13984775,-35.0625,-8.0625,53,-1.04750933758165,726,-0.635871077564458
"727",1223,121650,0.13984775,-34.71875,-9.34375,53.03125,-1.04750933758165,727,-0.564555778876728
"728",1224,121650,0.140168,-34.375,-10,53,-1.04119674914544,728,-0.537856261500877
"729",1225,121650,0.13856725,-34,-10,53.03125,-1.07274983560685,729,-0.597336791367102
"730",1226,121650,0.14016775,-34,-10,53.1875,-1.04120167700527,730,-0.556467840846713
"731",1227,121650,0.137927,-32.96875,-10,54,-1.08537008461945,731,-0.634095035401706
"732",1228,121650,0.14048775,-32.71875,-10,54,-1.03489401642888,732,-0.603480035070186
"733",1229,121650,0.14176825,-32.71875,-10,54,-1.00965351840368,733,-0.578239537044987
"734",1230,121650,0.1392075,-32.59375,-10,54,-1.06012958659425,734,-0.638646139165086
"735",1231,121650,0.14176825,-32.4375,-10,54,-1.00965351840368,735,-0.600583238386421
"736",1232,121650,0.1395275,-32.4375,-10,54,-1.05382192601787,736,-0.644751646000606
"737",1233,121650,0.140488,-32.3125,-10,54,-1.03488908856905,737,-0.63574934248132
"738",1234,121650,0.14176825,-32.25,-10,54,-1.00965351840368,738,-0.615479039280708
"739",1235,121650,0.13888725,-32.0625,-10.15625,54.28125,-1.06644217503047,739,-0.658586058102793
"740",1236,121650,0.14240875,-29.15625,-10.8125,55.84375,-0.997028341531256,740,-0.677289163647423
"741",1237,121650,0.14464975,-27.25,-11.21875,56.65625,-0.952855006057246,741,-0.705408318183532
"742",1238,121650,0.1436895,-27.34375,-11.0625,56.71875,-0.971782915646233,742,-0.724960023802994
"743",1239,121650,0.14464975,-27.28125,-11,56.6875,-0.952855006057246,743,-0.71758154486059
"744",1240,121650,0.1392075,-27.375,-11,56.59375,-1.06012958659425,744,-0.823000700101733
"745",1241,121650,0.1417685,-27.4375,-11,56.6875,-1.00964859054386,745,-0.761961961935293
"746",1242,121650,0.140488,-27.4375,-11,56.6875,-1.03488908856905,746,-0.787202459960491
"747",1243,121650,0.14016775,-27.4375,-11,56.71875,-1.04120167700527,747,-0.791650890012942
"748",1244,121650,0.143049,-26.875,-10.9375,57,-0.984408092518657,748,-0.767487288053408
"749",1245,121650,0.1388875,-26.875,-10.96875,57,-1.06643724717064,749,-0.847156440056362
"750",1246,121650,0.140488,-27,-11,56.96875,-1.03488908856905,750,-0.805181903259984
"751",1247,121650,0.1414485,-27.03125,-11,56.875,-1.01595625112024,751,-0.789358907480072
"752",1248,121650,0.13952775,-27,-11,56.9375,-1.05381699815804,752,-0.825973971232732
"753",1249,121650,0.14208875,-27.03125,-11,56.84375,-1.00333600210764,753,-0.778602816851235
"754",1250,121650,0.137607,-27.09375,-11,57,-1.09167774519584,754,-0.852658501055861
"755",1251,121650,0.1392075,-27.03125,-11,56.90625,-1.06012958659425,755,-0.831668084570322
"756",1252,121650,0.140168,-27,-11,56.90625,-1.04119674914544,756,-0.815217880603892
"757",1253,121650,0.1369665,-27,-11,56.90625,-1.10430292206826,757,-0.878324053526714
"758",1254,121650,0.14336925,-27,-11,57,-0.978095504082445,758,-0.746524160389613
"759",1255,121650,0.1366465,-27.25,-11,56.71875,-1.11061058264465,759,-0.875955596546613
"760",1256,121650,0.13856725,-27.40625,-11,56.8125,-1.07274983560685,760,-0.820089206945625
"761",1257,121650,0.140488,-27.40625,-11,56.78125,-1.03488908856905,761,-0.784092618291589
"762",1258,121650,0.13792725,-27.65625,-11,56.75,-1.08536515675963,762,-0.816571777006869
"763",1259,121650,0.14048775,-27.5,-11,56.5625,-1.03489401642888,763,-0.789698754390594
"764",1260,121650,0.13792725,-27.59375,-11,56.75,-1.08536515675963,764,-0.821537043971635
"765",1261,121650,0.137927,-27.53125,-11,56.75,-1.08537008461945,765,-0.826507238796221
"766",1262,121650,0.1392075,-27.625,-11,56.625,-1.06012958659425,766,-0.80127547385892
"767",1263,121650,0.137607,-27.75,-11,56.34375,-1.09167774519584,767,-0.839670523984828
"768",1264,121650,0.140488,-27.6875,-11,56.71875,-1.03488908856905,768,-0.765477233717677
"769",1265,121650,0.137927,-27.875,-10.96875,56.625,-1.08537008461945,769,-0.809014906674097
"770",1266,121650,0.13856725,-27.6875,-11,56.59375,-1.07274983560685,770,-0.810794614290518
"771",1267,121650,0.13952775,-27.59375,-10.9375,56.59375,-1.05381699815804,771,-0.80402968258691
"772",1268,121650,0.1363265,-27.53125,-11,56.53125,-1.11691824322104,772,-0.871104506084131
"773",1269,121650,0.138247,-27.71875,-11.03125,56.46875,-1.07906242404306,773,-0.819721200130366
"774",1270,121650,0.1392075,-27.65625,-11.1875,56.5,-1.06012958659425,774,-0.792089458017411
"775",1271,121650,0.1369665,-27.65625,-11.03125,56.40625,-1.10430292206826,775,-0.853655281887847
"776",1272,121650,0.140488,-27.59375,-11,56.625,-1.03488908856905,776,-0.778517609316105
"777",1273,121650,0.13632625,-27.5625,-11,56.375,-1.11692317108086,777,-0.877947592380381
"778",1274,121650,0.13824725,-27.5625,-11.28125,56.4375,-1.07905749618324,778,-0.81511357687398
"779",1275,121650,0.1392075,-27.6875,-11,56.53125,-1.06012958659425,779,-0.80190268204544
"780",1276,121650,0.13696675,-27.6875,-11.03125,56.46875,-1.10429799420844,780,-0.84743940377812
"781",1277,121650,0.138247,-27.5,-11.125,56.46875,-1.07906242404306,781,-0.830019626559949
"782",1278,121650,0.1414485,-27.71875,-10.90625,56.40625,-1.01595625112024,782,-0.769783354571177
"783",1279,121650,0.1420885,-27.90625,-11.125,56.1875,-1.00334092996747,783,-0.738801322667241
"784",1280,121650,0.1360065,-28,-11.0625,56.03125,-1.12322590379742,784,-0.865279193266913
"785",1281,121650,0.1392075,-28.09375,-10.84375,56.1875,-1.06012958659425,785,-0.801934202240992
"786",1282,121650,0.137927,-28.875,-10,56.09375,-1.08537008461945,786,-0.834421409881703
"787",1283,121650,0.13728675,-28.90625,-10.0625,55.96875,-1.09799033363205,787,-0.847295653648909
"788",1284,121650,0.1369665,-28.84375,-10.90625,55.9375,-1.10430292206826,788,-0.796717595909876
"789",1285,121650,0.13792675,-28.9375,-11,56,-1.08537501247928,789,-0.75953346115914
"790",1286,121650,0.13728675,-28.6875,-10.9375,56.0625,-1.09799033363205,790,-0.793001538701501
"791",1287,121650,0.135686,-28.53125,-10.9375,56.03125,-1.12954342009346,791,-0.838831950958579
"792",1288,121650,0.13952775,-28.21875,-11,56,-1.05381699815804,792,-0.785076016932677
"793",1289,121650,0.1363265,-28.125,-11,56.09375,-1.11691824322104,793,-0.850032687291534
"794",1290,121650,0.13728675,-28.0625,-11,56,-1.09799033363205,794,-0.841662519818595
"795",1291,121650,0.137607,-28.0625,-11,56.03125,-1.09167774519584,795,-0.833485772998621
"796",1292,121650,0.14080825,-28.0625,-11,56.03125,-1.02857650013284,796,-0.770384527935624
"797",1293,121650,0.13632625,-28.125,-11,56,-1.11692317108086,797,-0.855630090302643
"798",1294,121650,0.13504575,-28.03125,-11,56.125,-1.14216366910606,798,-0.880861855239943
"799",1295,121650,0.13984775,-28.625,-11,56,-1.04750933758165,799,-0.746494121085333
"800",1296,121650,0.13504575,-28.75,-11,56,-1.14216366910606,800,-0.831217918680213
"801",1297,121650,0.1392075,-28.53125,-11.09375,55.90625,-1.06012958659425,801,-0.765074737749271
"802",1298,121650,0.13536575,-28.875,-11,56,-1.13585600852967,802,-0.8149797241743
"803",1299,121650,0.1366465,-28.84375,-11.03125,56,-1.11061058264465,803,-0.78985692912263
"804",1300,121650,0.1369665,-28.65625,-11,56.03125,-1.10430292206826,804,-0.798940913705797
"805",1301,121650,0.13856725,-28.71875,-11,56,-1.07274983560685,805,-0.764286718663385
"806",1302,121650,0.137607,-28.71875,-11.09375,55.96875,-1.09167774519584,806,-0.777998778689047
"807",1303,121650,0.135686,-28.84375,-11,55.96875,-1.12954342009346,807,-0.813013927604229
"808",1304,121650,0.140808,-28.84375,-11,56,-1.02858142799267,808,-0.710187777119674
"809",1305,121650,0.135366,-28.78125,-11,55.96875,-1.13585108066985,809,-0.82428685514538
"810",1306,121650,0.13728675,-28.8125,-11,56,-1.09799033363205,810,-0.78207931624144
"811",1307,121650,0.13568625,-28.71875,-11,56.03125,-1.12953849223364,811,-0.819211216906408
"812",1308,121650,0.1363265,-28.71875,-11,55.96875,-1.11691824322104,812,-0.810319284661331
"813",1309,121650,0.14144875,-28.5625,-11,56.03125,-1.01595132326042,813,-0.718037215345096
"814",1310,121650,0.135686,-28.75,-11,56,-1.12954342009346,814,-0.818597669667614
"815",1311,121650,0.14112825,-28.53125,-10.96875,56,-1.02226883955646,815,-0.731061526156305
"816",1312,121650,0.13632625,-29.03125,-10.09375,56,-1.11692317108086,816,-0.852073796135405
"817",1313,121650,0.13792675,-29.09375,-10.03125,56,-1.08537501247928,817,-0.820280375867113
"818",1314,121650,0.132164,-29,-10.25,56,-1.19896710931232,818,-0.924800354604103
"819",1391,121650,0.1340855,-31.75,0.1875,55.8125,-1.16109157869505,819,-1.46787891261531
"820",1392,121650,0.138247,-42.875,-4.3125,45.6875,-1.07906242404306,820,-0.766179173113934
"821",1393,121650,0.12928325,-58.03125,-4.6875,29,-1.25575083807928,821,-0.705930893335055
"822",1394,121650,0.12992375,-60.8125,-4.53125,22.125,-1.24312566120686,822,-0.89426619420319
"823",1395,121650,0.13056375,-61.09375,-4.84375,21.46875,-1.23051034005408,823,-0.874854471277674
"824",1396,121650,0.12704225,-61.0625,-5,21.09375,-1.29992417355329,824,-0.957320825619253
"825",1397,121650,0.12960325,-61,-5,21.46875,-1.24944317750289,825,-0.88943519592849
"826",1398,121650,0.129603,-61,-5,21.28125,-1.24944810536272,826,-0.900625074090881
"827",1399,121650,0.13024375,-61,-5,21.25,-1.23681800063047,827,-0.889859127742391
"828",1400,121650,0.131524,-61.03125,-4.96875,21.46875,-1.2115824304651,828,-0.851451818057338
"829",1401,121650,0.12832275,-61,-5,21.15625,-1.27468367552809,829,-0.933317277791297
"830",1402,121650,0.13216425,-61.0625,-4.90625,21.75,-1.1989621814525,830,-0.824291515406568
"831",1403,121650,0.129603,-62.875,-8.46875,12,-1.24944810536272,831,-1.04336181108278
"832",1404,121650,0.12800275,-63.3125,-7.8125,12.0625,-1.28099133610448,832,-1.08597991193328
"833",1405,121650,0.12960325,-63.03125,-7.46875,13.5,-1.24944317750289,833,-1.01698419815944
"834",1406,121650,0.12576175,-63.09375,-6.8125,14.0625,-1.32516467157849,834,-1.10374562999218
"835",1407,121650,0.12832275,-64.3125,-7.5625,6.09375,-1.27468367552809,835,-1.37516225241122
"836",1408,121650,0.12768275,-62.15625,-6.6875,16.90625,-1.28729899668087,836,-0.980160557239885
"837",1409,121650,0.12832275,-50.0625,-6.09375,38.03125,-1.27468367552809,837,-0.712993376677997
"838",1410,121650,0.13120375,-51.40625,-7.34375,35.9375,-1.21789501890131,838,-0.579949986059646
"839",1411,121650,0.1248015,-62.96875,-8.25,13.3125,-1.34409258116748,839,-1.06878375286565
"840",1412,121650,0.12928325,-63.03125,-8.0625,13.0625,-1.25575083807928,840,-1.00455002577694
"841",1413,121650,0.1299235,-62.34375,-7.90625,15.875,-1.24313058906668,841,-0.890573472083409
"842",1414,121650,0.1273625,-62.8125,-7.9375,13.59375,-1.29361158511708,842,-1.03753852526359
"843",1415,121650,0.12864275,-63.0625,-8.375,12.78125,-1.26837601495171,843,-1.00786996813055
"844",1416,121650,0.12704225,-53.75,-7.875,31.21875,-1.29992417355329,844,-0.717149500447412
"845",1417,121650,0.130884,-41.25,-8.5,48.28125,-1.22419775161787,845,-0.569445940950626
"846",1418,121650,0.1302435,-41.0625,-8.03125,48.75,-1.23682292849029,846,-0.604404582696354
"847",1419,121650,0.128963,-39.96875,-8.03125,49.3125,-1.26206342651549,847,-0.682982401697209
"848",1420,121650,0.1305635,-55.75,-8.78125,29.34375,-1.23051526791391,848,-0.532261478139438
"849",1421,121650,0.126722,-61.78125,-8.8125,17.6875,-1.3062367619895,849,-0.82180578460915
"850",1422,121650,0.12832275,-61.625,-8.78125,18.5,-1.27468367552809,850,-0.756557750230895
"851",1423,121650,0.126402,-61.3125,-8.09375,19.625,-1.31254442256589,851,-0.804055188555744
"852",1424,121650,0.12992325,-60.875,-8.28125,20.53125,-1.24313551692651,852,-0.701182542646469
"853",1425,121650,0.12800275,-60.75,-8.125,21.375,-1.28099133610448,853,-0.710436632637569
"854",1426,121650,0.1276825,-59.96875,-8.1875,23.46875,-1.28730392454069,854,-0.64919644112329
"855",1427,121650,0.13184425,-60.125,-8.125,22.5,-1.20526984202888,855,-0.617258106394216
"856",1428,121650,0.12800275,-60,-8.28125,22.71875,-1.28099133610448,856,-0.67806101246787
"857",1429,121650,0.1296035,-60.1875,-8.6875,22.5625,-1.24943824964307,857,-0.610252882593604
"858",1430,121650,0.12864275,-60.1875,-8.71875,22.625,-1.26837601495171,858,-0.623102328485692
"859",1431,121650,0.1276825,-60.34375,-9.125,21.96875,-1.28730392454069,859,-0.638084362284378
"860",1432,121650,0.12832275,-60.25,-8.625,22.15625,-1.27468367552809,860,-0.659487105800812
"861",1433,121650,0.126402,-60.59375,-9.0625,21.3125,-1.31254442256589,861,-0.687331123807557
"862",1434,121650,0.1305635,-61.125,-9.78125,19.21875,-1.23051526791391,862,-0.633715750739407
"863",1435,121650,0.127042,-61.53125,-9.84375,18.1875,-1.29992910141312,863,-0.727652570333706
"864",1436,121650,0.1276825,-61.6875,-10,18.03125,-1.28730392454069,864,-0.700135004723035
"865",1437,121650,0.1280025,-61.46875,-9.96875,18.0625,-1.2809962639643,865,-0.711701622788586
"866",1438,121650,0.12608175,-61.65625,-9.96875,17.9375,-1.3188570110021,866,-0.742123202467139
"867",1439,121650,0.1280025,-61.78125,-10.09375,17.40625,-1.2809962639643,867,-0.716582603427634
"868",1440,121650,0.12928325,-54.875,-8.875,32.34375,-1.25575083807928,868,-0.440971573023375
"869",1441,121650,0.126402,-56.3125,-7.9375,30.9375,-1.31254442256589,869,-0.538251224060524
"870",1442,121650,0.131204,-55.25,-8.6875,32.3125,-1.21789009104148,870,-0.38934339847493
"871",1443,121650,0.13280475,-55.8125,-7.15625,32.15625,-1.18633700458007,871,-0.438063831051848
"872",1444,121650,0.12928325,-55.875,-6.3125,31.96875,-1.25575083807928,872,-0.577417419412626
"873",1445,121650,0.12992325,-55.59375,-6.4375,32.46875,-1.24313551692651,873,-0.547879254864999
"874",1446,121650,0.128643,-54.78125,-9.0625,32.375,-1.26837108709188,874,-0.445015548205187
"875",1447,121650,0.1321645,-39.53125,-9.1875,49.0625,-1.19895725359267,875,-0.582226266583762
"876",1448,121650,0.13184425,-33.0625,-9.625,53.84375,-1.20526984202888,876,-0.784187716071137
"877",1449,121650,0.133765,-27.0625,-6.375,57.34375,-1.16740909499109,877,-1.25964713416832
"878",1450,121650,0.139848,-26.78125,-4.4375,57.6875,-1.04750440972183,878,-1.28790057225889
"879",1451,121650,0.135046,-28.375,-5.875,56.875,-1.14215874124624,879,-1.19584859230432
"880",1452,121650,0.14080825,-29.375,-7.28125,56.3125,-1.02857650013284,880,-0.930176811456135
"881",1453,121650,0.13792675,-30.53125,-7.90625,55.8125,-1.08537501247928,881,-0.877744366114064
"882",1454,121650,0.135366,-31.0625,-8.40625,55.28125,-1.13585108066985,882,-0.879946315243629
"883",1455,121650,0.13856725,-31,-9,55,-1.07274983560685,883,-0.793747712267703
"884",1456,121650,0.1369665,-31,-8.96875,55.0625,-1.10430292206826,884,-0.823932484610621
"885",1457,121650,0.1372865,-31.03125,-8.78125,55.0625,-1.09799526149188,885,-0.829302206446022
"886",1458,121650,0.13984775,-30.9375,-9.28125,55.15625,-1.04750933758165,886,-0.742911665447209
"887",1459,121650,0.135366,-30.84375,-9.65625,55.15625,-1.13585108066985,887,-0.810381277194205
"888",1460,121650,0.137927,-30.28125,-9.8125,55.28125,-1.08537008461945,888,-0.78533103704649
"889",1461,121650,0.140488,-29.84375,-9.96875,55.8125,-1.03488908856905,889,-0.726116203980359
"890",1462,121650,0.13728675,-29.28125,-10,56,-1.09799033363205,890,-0.820359898774626
"891",1463,121650,0.13696675,-29.0625,-10,56,-1.10429799420844,891,-0.844045993727685
"892",1464,121650,0.13888725,-29,-10,55.96875,-1.06644217503047,892,-0.813019599898234
"893",1465,121650,0.1408085,-29.0625,-10,56,-1.02857157227302,893,-0.768319571792263
"894",1466,121650,0.1395275,-29,-10,56,-1.05382192601787,894,-0.798535192501874
"895",1467,121650,0.1388875,-29,-10.09375,56,-1.06643724717064,895,-0.804070505707563
"896",1468,121650,0.13696675,-29,-10.1875,55.96875,-1.10429799420844,896,-0.836715403182037
"897",1469,121650,0.1388875,-29,-10.34375,56,-1.06643724717064,897,-0.785190484515337
"898",1470,121650,0.138247,-29.09375,-10.34375,55.90625,-1.07906242404306,898,-0.7959602360919
"899",1471,121650,0.13792725,-28.96875,-10.6875,56,-1.08536515675963,899,-0.780640998447391
"900",1472,121650,0.14112825,-28.875,-11,56,-1.02226883955645,900,-0.701392555201081
"901",1473,121650,0.1392075,-28.40625,-10.71875,56.03125,-1.06012958659425,901,-0.795868669932093
"902",1474,121650,0.1398475,-28.78125,-10.8125,56.0625,-1.04751426544148,902,-0.744517580659898
"903",1475,121650,0.13984775,-28.71875,-10.9375,56,-1.04750933758165,903,-0.743766225936245
"904",1476,121650,0.13888725,-29.3125,-10.125,55.90625,-1.06644217503047,904,-0.782481571245828
"905",1477,121650,0.142729,-29.84375,-10,55.9375,-0.990715753095044,905,-0.672126232322275
"906",1478,121650,0.137927,-29.46875,-10,55.8125,-1.08537008461945,906,-0.804028799170303
"907",1479,121650,0.14144825,-29.90625,-10,55.5,-1.01596117898007,907,-0.718504608615187
"908",1480,121650,0.13984775,-30.03125,-9.9375,55.71875,-1.04750933758165,908,-0.731793129898977
"909",1481,121650,0.1385675,-30.1875,-9.96875,55.4375,-1.07274490774703,909,-0.759032955457263
"910",1482,121650,0.14304925,-30.3125,-10,55.3125,-0.984403164658832,910,-0.665857309325556
"911",1483,121650,0.13984775,-30.09375,-10,55.4375,-1.04750933758165,911,-0.738885283090005
"912",1484,121650,0.14144825,-30.125,-10,55.46875,-1.01596117898007,912,-0.702990332622279
"913",1485,121650,0.14208875,-30.375,-9.78125,55.34375,-1.00333600210764,913,-0.694480739969045
"914",1486,121650,0.140808,-30.75,-9.3125,55.0625,-1.02858142799267,914,-0.742112029254763
"915",1487,121650,0.14529,-19.53125,-7.375,59.46875,-0.940234757044647,915,-1.42850461061117
"916",1488,121650,0.13824725,-19.875,-8.21875,59.5625,-1.07905749618324,916,-1.47070583476852
"917",1489,121650,0.140488,-21.1875,-8.78125,59.15625,-1.03488908856905,917,-1.30402083220069
"918",1490,121650,0.1411285,-19.96875,-9.8125,59.46875,-1.02226391169663,918,-1.2916966898856
"919",1491,121650,0.14208875,-20.5,-9.5,59.3125,-1.00333600210764,919,-1.26348482950522
"920",1492,121650,0.14336925,-20.75,-9.90625,59.125,-0.978095504082445,920,-1.19888817948616
"921",1493,121650,0.13984775,-21,-9.59375,59.03125,-1.04750933758165,921,-1.27763344676789
"922",1494,121650,0.143369,-21.5,-9,59.03125,-0.97810043194227,922,-1.21334245574194
"923",1495,121650,0.14144825,-21.34375,-8.9375,59.125,-1.01596117898007,923,-1.26274390033842
"924",1496,121650,0.142089,-21.375,-8.8125,59.03125,-1.00333107424782,924,-1.26266364787118
"925",1497,121650,0.14497,-21.3125,-8.5625,59.1875,-0.946542417621034,925,-1.22039948748258
"926",1498,121650,0.14208875,-21.375,-8.40625,59,-1.00333600210764,926,-1.29521276855214
"927",1499,121650,0.14432975,-19.875,-9.34375,59.59375,-0.959162666633633,927,-1.26398675147013
"928",1500,121650,0.1433695,-18.40625,-9.5625,60.0625,-0.97809057622262,928,-1.35511604043143
"929",1501,121650,0.14465,-18.90625,-9.53125,60.03125,-0.952850078197421,929,-1.29437756772092
"930",1502,121650,0.1436895,-19,-10,60,-0.971782915646233,930,-1.27232662337092
"931",1503,121650,0.14112825,-19,-9.875,60.03125,-1.02226883955646,931,-1.3303883994935
"932",1504,121650,0.1462505,-19,-9.875,60,-0.921301919595835,932,-1.23128563791664
"933",1505,121650,0.14304925,-19,-9.96875,59.96875,-0.984403164658832,933,-1.28917103341631
"934",1506,121650,0.1414485,-19,-9.96875,60,-1.01595625112024,934,-1.31885996149396
"935",1507,121650,0.14433,-18.90625,-9.84375,59.96875,-0.959157738773808,935,-1.28081351857454
"936",1508,121650,0.14208875,-19.65625,-9.0625,59.875,-1.00333600210764,936,-1.33000111970822
"937",1509,121650,0.143369,-19.0625,-9.9375,59.90625,-0.97810043194227,937,-1.28399135315154
"938",1510,121650,0.14368925,-19,-10,60,-0.971787843506058,938,-1.27233155123075
"939",1511,121650,0.1414485,-19.34375,-9.8125,59.71875,-1.01595625112024,939,-1.32012843188676
"940",1512,121650,0.14432975,-19.34375,-9.96875,59.90625,-0.959162666633634,940,-1.24034988385244
"941",1513,121650,0.1398475,-19.46875,-9.96875,59.6875,-1.04751426544148,941,-1.33182005741709
"942",1514,121650,0.14080825,-19.71875,-10,59.75,-1.02857650013284,942,-1.28693290483285
"943",1515,121650,0.14304925,-19.96875,-9.84375,59.59375,-0.984403164658832,943,-1.24401930666373
"944",1516,121650,0.141128,-20,-9.09375,59.71875,-1.02227376741628,944,-1.32859070598044
"945",1517,121650,0.143049,-20,-9.78125,59.5625,-0.984408092518657,945,-1.24812576472299
"946",1518,121650,0.14208875,-20,-9.96875,59.71875,-1.00333600210764,946,-1.243572866499
"947",1519,121650,0.1411285,-19.90625,-9.5625,59.65625,-1.02226391169663,947,-1.30435702774003
"948",1520,121650,0.14464975,-20,-9.375,59.5625,-0.952855006057246,948,-1.24725271269895
"949",1521,121650,0.1414485,-20.09375,-9.90625,59.5,-1.01595625112024,949,-1.26651432904884
"950",1522,121650,0.14336925,-20.15625,-10,59.1875,-0.978095504082445,950,-1.2352498909368
"951",1523,121650,0.14465025,-20,-10,59.34375,-0.952845150337596,951,-1.21309191268506
"952",1524,121650,0.14144825,-20.25,-9.90625,59.21875,-1.01596117898007,952,-1.27088351495061
"953",1525,121650,0.14240875,-21.0625,-9.96875,59,-0.997028341531257,953,-1.19573131034815
"954",1526,121650,0.14240875,-21.21875,-9.6875,59.03125,-0.997028341531256,954,-1.20269400839373
"955",1527,121650,0.1411285,-21.5,-9.46875,59.03125,-1.02226391169663,955,-1.22210589576087
"956",1528,121650,0.1436895,-22,-9.15625,59,-0.971782915646233,956,-1.15736694886642
"957",1529,121650,0.1414485,-21.84375,-9.8125,58.9375,-1.01595625112024,957,-1.16812171289026
"958",1530,121650,0.14496975,-21.96875,-9.75,59,-0.946547345480859,958,-1.08977396185189
"959",1531,121650,0.14432975,-22,-9.21875,59,-0.959162666633633,959,-1.14002669455576
"960",1532,121650,0.143049,-22,-9.53125,59,-0.984408092518657,960,-1.1416720939505
"961",1533,121650,0.14561025,-22,-9.78125,59,-0.933922168608435,961,-1.07230614884805
"962",1534,121650,0.14721125,-22.03125,-9.375,59.03125,-0.902364154287198,962,-1.06708137709804
"963",1535,121650,0.1436895,-22.03125,-9.59375,58.9375,-0.971782915646233,963,-1.12557259506516
"964",1536,121650,0.1440095,-22,-9.75,58.96875,-0.965475255069846,964,-1.10808339634225
"965",1537,121650,0.14304925,-22.09375,-9.53125,58.96875,-0.984403164658832,965,-1.13608342402729
"966",1538,121650,0.14529025,-22.0625,-9.09375,58.96875,-0.940229829184822,966,-1.12743275912206
"967",1539,121650,0.14080825,-22,-9.1875,59,-1.02857650013284,967,-1.211800530704
"968",1540,121650,0.14240875,-22.03125,-9.34375,59,-0.997028341531256,968,-1.16596972537489
"969",1541,121650,0.14336925,-22.15625,-9.03125,58.9375,-0.978095504082445,969,-1.16443469725436
"970",1542,121650,0.14208875,-23.03125,-8.875,58.84375,-1.00333600210764,970,-1.1375539461693
"971",1543,121650,0.14400975,-23.0625,-8.9375,58.65625,-0.96547032721002,971,-1.1036705827938
"972",1544,121650,0.14465,-23.09375,-9,58.75,-0.952850078197421,972,-1.07825521984948
"973",1545,121650,0.14368925,-23.25,-8.84375,58.78125,-0.971787843506058,973,-1.09471567260759
"974",1546,121650,0.142729,-24.1875,-9,58.28125,-0.990715753095044,974,-1.05719109862017
"975",1547,121650,0.14016775,-24.96875,-8.40625,58,-1.04120167700527,975,-1.10722866125624
"976",1548,121650,0.142409,-24.375,-7.90625,58.3125,-0.997023413671431,976,-1.1293388926345
"977",1549,121650,0.14112825,-24.5625,-7.1875,58.5625,-1.02226883955646,977,-1.1790553114828
"978",1550,121650,0.140168,-23.53125,-8.4375,58.53125,-1.04119674914544,978,-1.187374178413
"979",1551,121650,0.1484915,-23.25,-11.21875,58.5625,-0.877128584121825,979,-0.833745320583527
"980",1552,121650,0.13440525,-54.0625,-5.34375,29.90625,-1.15478884597849,980,-0.816642704738045
"981",1553,121650,0.172502,-60.03125,-3.03125,24.09375,-0.403847070780137,981,-0.112891589812444
"982",1554,121650,0.14304925,-60.1875,-1.65625,24.15625,-0.984403164658832,982,-0.78114631606896
"983",1555,121650,0.135686,-60,-3.09375,24.875,-1.12954342009346,983,-0.789746607716074
"984",1556,121650,0.13888725,-59.84375,-3.53125,25,-1.06644217503047,984,-0.698561859443544
"985",1557,121650,0.13536575,-60,-3.8125,24.9375,-1.13585600852967,985,-0.738050818457112
"986",1558,121650,0.1366465,-60,-3.96875,24.90625,-1.11061058264465,986,-0.702869537710706
"987",1559,121650,0.13664625,-60,-4,25,-1.11061551050448,987,-0.694921987770221
"988",1560,121650,0.136006,-59.96875,-4,24.9375,-1.12323575951707,988,-0.713753187032724
"989",1561,121650,0.137607,-59.96875,-4,24.71875,-1.09167774519584,989,-0.695244281397813
"990",1562,121650,0.13472575,-60,-4,24.53125,-1.14847132968245,990,-0.760740182704605
"991",1563,121650,0.1353655,-60,-4,24.625,-1.1358609363895,991,-0.742537314260374
"992",1564,121650,0.1366465,-60,-4,24.65625,-1.11061058264465,992,-0.715422802131764
"993",1565,121650,0.13312475,-59.96875,-4,24.875,-1.18002934400368,993,-0.774275088286855
"994",1566,121650,0.1366465,-60,-4.03125,24.9375,-1.11061058264465,994,-0.696285374028889
"995",1567,121650,0.13280475,-60,-4,24.78125,-1.18633700458007,995,-0.783692590532142
"996",1568,121650,0.135366,-60,-4.0625,24.90625,-1.13585108066985,996,-0.72103002778882
"997",1569,121650,0.135686,-60,-4.03125,24.9375,-1.12954342009346,997,-0.7152182114777
"998",1570,121650,0.1347255,-59.65625,-4.28125,25.03125,-1.14847625754227,998,-0.736987520889198
"999",1571,121650,0.135686,-58.125,-2.65625,29.90625,-1.12954342009346,999,-0.671615153959877
"1000",1572,121650,0.13440525,-32.65625,-9.03125,51.96875,-1.15478884597849,1000,-0.922670508648883
"1001",1573,121650,0.142409,-29.53125,-7.25,55.90625,-0.997023413671431,1001,-0.912804619220736
"1002",1574,121650,0.14016775,-28.625,-7.4375,56.59375,-1.04120167700527,1002,-0.973807753206729
"1003",1575,121650,0.1392075,-26.9375,-8.5625,57.25,-1.06012958659425,1003,-1.00269044942031
"1004",1576,121650,0.1417685,-27.3125,-9.28125,57.03125,-1.00964859054386,1004,-0.881186899340012
"1005",1577,121650,0.1395275,-26.9375,-9.96875,57.09375,-1.05382192601787,1005,-0.899503461556452
"1006",1578,121650,0.14336925,-27,-10,57,-0.978095504082445,1006,-0.822044245158521
"1007",1579,121650,0.13984775,-26.8125,-9.875,57.03125,-1.04750933758165,1007,-0.913929731764374
"1008",1580,121650,0.13984775,-27.03125,-10,57,-1.04750933758165,1008,-0.888975445175348
"1009",1581,121650,0.14240875,-27.625,-10.0625,56.84375,-0.997028341531256,1009,-0.795925199580452
"1010",1582,121650,0.140488,-27.78125,-10.65625,56.6875,-1.03488908856905,1010,-0.785853520793606
"1011",1583,121650,0.14304875,-27.71875,-10.59375,56.65625,-0.984413020378482,1011,-0.746926883249615
"1012",1584,121650,0.1392075,-27.75,-10.0625,56.71875,-1.06012958659425,1012,-0.856552544248965
"1013",1585,121650,0.14080825,-27.75,-10.21875,56.6875,-1.02857650013284,1013,-0.815063602926172
"1014",1586,121650,0.143369,-27.71875,-10.1875,56.90625,-0.97810043194227,1014,-0.756381062180686
"1015",1587,121650,0.13984775,-27.40625,-10.0625,56.84375,-1.04750933758165,1015,-0.86378463000752
"1016",1588,121650,0.143049,-27.875,-10,56.5625,-0.984408092518657,1016,-0.784941313460705
"1017",1589,121650,0.13984775,-28,-10.03125,56.4375,-1.04750933758165,1017,-0.84320865548019
"1018",1590,121650,0.143369,-27.96875,-10.0625,56.3125,-0.97810043194227,1018,-0.781379014209201
"1019",1591,121650,0.1417685,-28.03125,-10.03125,56.4375,-1.00964859054386,1019,-0.802865274960011
"1020",1592,121650,0.142409,-28.125,-8.9375,56.875,-0.997023413671431,1020,-0.839294072983784
"1021",1593,121650,0.14497,-27.875,-9.40625,56.65625,-0.946542417621034,1021,-0.786323213743339
"1022",1594,121650,0.14272875,-27.96875,-9.625,56.84375,-0.990720680954869,1022,-0.795348607784266
"1023",1595,121650,0.14625075,-28,-9.21875,56.71875,-0.92129699173601,1023,-0.761578953055437
"1024",1596,121650,0.14208875,-28.0625,-9.6875,56.78125,-1.00333600210764,1024,-0.799524339959361
"1025",1597,121650,0.14465,-28.4375,-9.125,56.46875,-0.952850078197421,1025,-0.78036844578068
"1026",1598,121650,0.14465,-28.40625,-8.5,56.625,-0.952850078197421,1026,-0.820730340324824
"1027",1599,121650,0.143049,-28.40625,-8.53125,56.65625,-0.984408092518657,1027,-0.848064193613272
"1028",1600,121650,0.1452905,-28.4375,-8.625,56.75,-0.940224901324996,1028,-0.788725885838863
"1029",1601,121650,0.14208875,-28.4375,-8.5625,56.5625,-1.00333600210764,1029,-0.867741942222131
"1030",1602,121650,0.14561025,-28.6875,-8.8125,56.4375,-0.933922168608435,1030,-0.767043653206686
"1031",1603,121650,0.1436895,-28.53125,-8.96875,56.375,-0.971782915646232,1031,-0.809245871178769
"1032",1604,121650,0.14400975,-28.40625,-9.0625,56.28125,-0.96547032721002,1032,-0.81137628387628
"1033",1605,121650,0.14465,-28.25,-9.03125,56.5,-0.952850078197421,1033,-0.800480096238291
"1034",1606,121650,0.1417685,-28.40625,-9.34375,56.25,-1.00964859054386,1034,-0.836178681752623
"1035",1607,121650,0.1462505,-28.5625,-9.71875,56.3125,-0.921301919595835,1035,-0.703370494836831
"1036",1608,121650,0.14529025,-28.0625,-9.96875,56.5,-0.940229829184822,1036,-0.73195556864913
"1037",1609,121650,0.14496975,-28.03125,-10,56.34375,-0.946547345480859,1037,-0.747716507697325
"1038",1610,121650,0.1456105,-27.53125,-10,56.625,-0.933917240748609,1038,-0.758031113229329
"1039",1611,121650,0.1436895,-27.84375,-10,56.96875,-0.971782915646232,1039,-0.750564711081771
"1040",1612,121650,0.14561025,-27.9375,-10,56.875,-0.933922168608435,1040,-0.710848538748109
"1041",1613,121650,0.14496975,-27.96875,-10,56.96875,-0.946547345480859,1041,-0.715398606986871
"1042",1614,121650,0.1436895,-28,-10,56.9375,-0.971782915646233,1042,-0.740015702053625
"1043",1615,121650,0.14529025,-27.90625,-10,56.78125,-0.940229829184822,1043,-0.725231307958162
"1044",1616,121650,0.1456105,-27.96875,-10,56.96875,-0.933917240748609,1044,-0.702768502254622
"1045",1617,121650,0.14432975,-27.34375,-9.625,57.125,-0.959162666633633,1045,-0.796665837656809
"1046",1618,121650,0.14657075,-28.625,-9.9375,56.125,-0.914989331159623,1046,-0.686757571195224
"1047",1619,121650,0.14689075,-28.125,-10,56.3125,-0.908681670583236,1047,-0.704267090736316
"1048",1620,121650,0.1462505,-28,-10,56.5625,-0.921301919595835,1048,-0.711904606608357
"1049",1621,121650,0.14529,-28.59375,-9.96875,56.28125,-0.940234757044647,1049,-0.702804835994797
"1050",1622,121650,0.14432975,-28,-10.15625,56.3125,-0.959162666633633,1050,-0.752878607471099
"1051",1623,121650,0.147211,-28,-10.3125,56.28125,-0.902369082147024,1051,-0.686149168123108
"1052",1624,121650,0.14208875,-28,-10.03125,56.46875,-1.00333600210764,1052,-0.797171161622418
"1053",1625,121650,0.14593025,-28,-10,56.5,-0.927614508032048,1053,-0.721945511812089
"1054",1626,121650,0.1436895,-28,-10.125,56.5,-0.971782915646233,1054,-0.756673908830161
"1055",1627,121650,0.14561025,-27.96875,-10.03125,56.5,-0.933922168608435,1055,-0.728375803221828
"1056",1628,121650,0.14561025,-28,-10,56.6875,-0.933922168608435,1056,-0.717068222085912
"1057",1629,121650,0.14368925,-28,-10,56.4375,-0.971787843506058,1057,-0.769847164053623
"1058",1630,121650,0.14465,-27.9375,-10.03125,56.46875,-0.952850078197421,1058,-0.751650504676957
"1059",1631,121650,0.14304925,-28,-10,56.40625,-0.984403164658832,1059,-0.784326643590157
"1060",1632,121650,0.14400975,-28,-10,56.46875,-0.96547032721002,1060,-0.761665489373824
"1061",1633,121650,0.14593075,-28,-10.03125,56.3125,-0.927604652312397,1061,-0.730760603745975
"1062",1634,121650,0.1436895,-27.96875,-10.25,56.46875,-0.971782915646232,1062,-0.751580690100191
"1063",1635,121650,0.14753125,-28,-10.25,56.375,-0.896056493710812,1063,-0.678964109833672
"1064",1636,121650,0.14336925,-28.0625,-9.9375,56.46875,-0.978095504082445,1064,-0.774045404579542
"1065",1637,121650,0.1440095,-28.03125,-10,56.40625,-0.965475255069846,1065,-0.762916100518789
"1066",1638,121650,0.14689075,-28,-10,56.3125,-0.908681670583236,1066,-0.714197624665842
"1067",1639,121650,0.1443295,-28,-10,56.4375,-0.959167594493458,1067,-0.757226915041023
"1068",1640,121650,0.1481715,-28,-10,56.625,-0.883436244698212,1068,-0.67031061494321
"1069",1641,121650,0.14529025,-28,-10,56.375,-0.940229829184822,1069,-0.742017466499908
"1070",1642,121650,0.14689075,-28,-10,56.34375,-0.908681670583236,1070,-0.712333466282083
"1071",1643,121650,0.14496975,-28,-10,56.3125,-0.946547345480859,1071,-0.752063299563466
"1072",1644,121650,0.14529,-28.03125,-10.03125,56.21875,-0.940234757044647,1072,-0.746500550147125
"1073",1645,121650,0.14785125,-28.03125,-10,56.3125,-0.889748833134424,1073,-0.69278215373465
"1074",1646,121650,0.142729,-28,-10,56.46875,-0.990715753095044,1074,-0.786910915258847
"1075",1647,121650,0.14817125,-28.03125,-10,56.34375,-0.883441172558037,1075,-0.684610334774503
"1076",1648,121650,0.14368925,-28,-10.0625,56.15625,-0.971787843506058,1076,-0.781904584209413
"1077",1649,121650,0.14561025,-28,-10.03125,56.3125,-0.933922168608435,1077,-0.737078120042012
"1078",1650,121650,0.146571,-28.15625,-10,56.28125,-0.914984403299798,1078,-0.70995134835426
"1079",1651,121650,0.14529,-28,-10,56.125,-0.940234757044647,1079,-0.756935661429818
"1080",1652,121650,0.1475315,-28,-10.09375,56.0625,-0.896051565850986,1080,-0.709400779056595
"1081",1653,121650,0.14464975,-28,-10,56.3125,-0.952855006057246,1081,-0.758370960139853
"1082",1654,121650,0.14625075,-27.875,-9.84375,56.40625,-0.92129699173601,1082,-0.742951017842003
"1083",1655,121650,0.1440095,-27.96875,-10,56.34375,-0.965475255069845,1083,-0.771609684251073
"1084",1656,121650,0.142729,-27,-10.375,56.6875,-0.990715753095044,1084,-0.824986046220389
"1085",1657,121650,0.14657075,-26.5,-9.8125,57.09375,-0.914989331159623,1085,-0.80722774869669
"1086",1658,121650,0.1433695,-27.96875,-9.96875,56.8125,-0.97809057622262,1086,-0.758622632296465
"1087",1659,121650,0.14657075,-27.9375,-10,56.96875,-0.914989331159623,1087,-0.686323226148016
"1088",1660,121650,0.14304925,-27.9375,-9.84375,56.84375,-0.984403164658832,1088,-0.77499370642741
"1089",0,153432,0.0858023333333333,-26.5,2.70833333333333,58.0833333333333,-0.926249709761223,1,2.04479840939139
"1090",1,153432,0.0835615,-26.21875,2.875,58.3125,-0.966099452292172,2,2.10493184397948
"1091",2,153432,0.086763,-26.78125,2.5625,58,-0.909165744276033,3,1.86763742441942
"1092",3,153432,0.0838815,-27.15625,2.5625,57.96875,-0.960408749007722,4,1.60724222423923
"1093",4,153432,0.0858025,-28.375,2.09375,57.125,-0.926246745853263,5,1.24031944674723
"1094",5,153432,0.0854825,-35.90625,-0.8125,52.75,-0.931937449137712,6,-1.85789849883774
"1095",6,153432,0.0829215,-43.34375,0.34375,47.5,-0.97748085886107,7,-2.05122117697495
"1096",7,153432,0.08452225,-43.96875,0.59375,47.1875,-0.949014004853001,8,-2.04381429270825
"1097",8,153432,0.081961,-44.125,0.40625,46.96875,-0.9945618604383,9,-2.13117628954097
"1098",9,153432,0.0848425,-44.21875,0.03125,46.8125,-0.94331885570661,10,-2.23239225801067
"1099",10,153432,0.084842,-44,-0.25,46.90625,-0.943327747430492,11,-2.32109313232914
"1100",11,153432,0.08324125,-43.96875,-0.53125,47.03125,-0.971794601438562,12,-2.57683846749693
"1101",12,153432,0.086123,-44,-0.9375,47,-0.920547150844931,13,-2.74742930359564
"1102",13,153432,0.084522,-44,-1,47,-0.949018450714942,14,-2.81054569129932
"1103",14,153432,0.0835615,-44,-1,47,-0.966099452292172,15,-2.82762669287655
"1104",15,153432,0.08580275,-44,-1,47,-0.926242299991322,16,-2.7877695405757
"1105",16,153432,0.08324125,-44,-1,47,-0.971794601438562,17,-2.83332184202294
"1106",17,153432,0.08388175,-44,-1,47,-0.960404303145781,18,-2.82193154373016
"1107",18,153432,0.08452225,-44,-1,47,-0.949014004853001,19,-2.81054124543738
"1108",19,153432,0.082281,-44,-1,46.96875,-0.988871157153851,20,-2.82772479717765
"1109",20,153432,0.0848425,-40.09375,0.4375,49.78125,-0.94331885570661,21,-1.61110748424667
"1110",21,153432,0.08260125,-33.90625,1.71875,54.40625,-0.98317600800746,22,-0.471307584772766
"1111",22,153432,0.082601,-35.65625,1.75,53.5,-0.983180453869401,23,-0.878308785170211
"1112",23,153432,0.08484225,-36.625,1.8125,52.71875,-0.943323301568552,24,-0.835849837378087
"1113",24,153432,0.08100025,-37.0625,1.875,52.6875,-1.01164730787747,25,-1.11731858397002
"1114",25,153432,0.084522,-37.34375,1.6875,52.3125,-0.949018450714942,26,-1.0604111305884
"1115",26,153432,0.08356175,-37,1.875,52.5625,-0.96609500643023,27,-0.942434247612294
"1116",27,153432,0.082601,-37,1.9375,52.40625,-0.983180453869401,28,-0.811506604414926
"1117",28,153432,0.08420175,-37.40625,1.46875,52.28125,-0.954713599861332,29,-1.20332811926022
"1118",29,153432,0.08100025,-37.9375,1.8125,51.90625,-1.01164730787747,30,-1.12605051514381
"1119",30,153432,0.0832415,-37.78125,1.71875,52,-0.971790155576621,31,-1.10958771460474
"1120",31,153432,0.08548275,-37.90625,1.5,52,-0.931933003275771,32,-1.26826363505808
"1121",32,153432,0.0813205,-37.78125,1.375,52.03125,-1.00595215873108,33,-1.35697130140494
"1122",33,153432,0.08228075,-37.6875,1.40625,52.03125,-0.988875603015792,34,-1.26461575277055
"1123",34,153432,0.08420175,-37.78125,1.625,51.9375,-0.954713599861332,35,-1.0991315895188
"1124",35,153432,0.08164075,-38.09375,2.03125,51.6875,-1.00025700958469,36,-0.931281287179618
"1125",36,153432,0.08388175,-38.71875,1.875,51.125,-0.960404303145781,37,-0.956292816916317
"1126",37,153432,0.084522,-38.28125,1.78125,51.5,-0.949018450714942,38,-0.998494374285622
"1127",38,153432,0.08068,-37.90625,1.46875,51.84375,-1.01734245702386,39,-1.25762762992013
"1128",39,153432,0.08196075,-38.375,1.8125,51.3125,-0.994566306300241,40,-0.948634531592907
"1129",40,153432,0.0835615,-38.5625,1.84375,51.34375,-0.966099452292172,41,-1.04143163223312
"1130",41,153432,0.08132025,-38.78125,1.40625,51.125,-1.00595660459302,42,-1.30032090978423
"1131",42,153432,0.08132025,-38,2,51.90625,-1.00595660459302,43,-1.05506218102655
"1132",43,153432,0.08420175,-37.96875,1.96875,51.96875,-0.954713599861332,44,-1.04717010499874
"1133",44,153432,0.08132025,-37.9375,2,52,-1.00595660459302,45,-1.08444535004008
"1134",45,153432,0.08100025,-38.03125,2,51.875,-1.01164730787747,46,-1.05739810008451
"1135",46,153432,0.0835615,-38,2,51.75,-0.966099452292172,47,-0.901837025922818
"1136",47,153432,0.08035975,-38,2,52,-1.02303760617025,48,-1.1401639842855
"1137",48,153432,0.08100025,-38,1.9375,52,-1.01164730787747,49,-1.16341877382638
"1138",49,153432,0.083241,-38,2,52,-0.971799047300503,50,-1.08892542541575
"1139",50,153432,0.0803595,-38.25,2,51.40625,-1.02304205203219,51,-0.86392055016922
"1140",51,153432,0.08132,-38.90625,2,51,-1.00596105045496,52,-0.957777884320393
"1141",52,153432,0.082921,-39.03125,2.125,50.96875,-0.977489750584952,53,-0.914618073558841
"1142",53,153432,0.0803595,-39.0625,2,50.9375,-1.02304205203219,54,-1.02610576644692
"1143",54,153432,0.081,-38.9375,2,51,-1.01165175373941,55,-0.982787403938935
"1144",55,153432,0.0838815,-39,2,51,-0.960408749007722,56,-0.970182031875428
"1145",56,153432,0.0816405,-38.9375,1.96875,51.03125,-1.00026145544663,57,-1.01139325012356
"1146",57,153432,0.08228075,-37.875,2,51.84375,-0.988875603015792,58,-0.915358712991807
"1147",58,153432,0.0835615,-37.0625,2,52.40625,-0.966099452292172,59,-0.798418147672213
"1148",59,153432,0.08068,-37,2,52.65625,-1.01734245702386,60,-0.992412324220319
"1149",60,153432,0.082601,-37,2,52.53125,-0.983180453869401,61,-0.867555918823563
"1150",61,153432,0.084522,-37.0625,2,52.15625,-0.949018450714942,62,-0.599948341610376
"1151",62,153432,0.08068,-37.03125,2,52.5,-1.01734245702386,63,-0.898363137751539
"1152",63,153432,0.08260075,-37,2,52.53125,-0.983184899731342,64,-0.867560364685504
"1153",64,153432,0.082921,-37,2,52.6875,-0.977489750584952,65,-0.975233218341986
"1154",65,153432,0.08068,-37,2,52.71875,-1.01734245702386,66,-1.03775952534147
"1155",66,153432,0.0816405,-37.03125,2,52.6875,-1.00026145544663,67,-1.01732373953776
"1156",67,153432,0.082601,-37.25,2,52.125,-0.983180453869401,68,-0.727349642208794
"1157",68,153432,0.0816405,-37,2,52.34375,-1.00026145544663,69,-0.748595317037338
"1158",69,153432,0.08196075,-37,2,52.40625,-0.994566306300241,70,-0.788247369012099
"1159",70,153432,0.08420175,-37.03125,2,52.46875,-0.954713599861332,71,-0.813060680028434
"1160",71,153432,0.0816405,-37.25,2,52.21875,-1.00026145544663,72,-0.812451445467751
"1161",72,153432,0.08228075,-37.0625,2,52.28125,-0.988875603015792,73,-0.73049989615353
"1162",73,153432,0.0835615,-37,2,52.5625,-0.966099452292172,74,-0.873148517806902
"1163",74,153432,0.08100025,-37,2,52.75,-1.01164730787747,75,-1.05473797675566
"1164",75,153432,0.082601,-37,2,52.625,-0.983180453869401,76,-0.935576720505284
"1165",76,153432,0.08420175,-36.96875,2.125,52.875,-0.954713599861332,77,-0.999889678980406
"1166",77,153432,0.08068,-36.875,2,53,-1.01734245702386,78,-1.1645466650503
"1167",78,153432,0.08324125,-37,2.125,52.90625,-0.971794601438562,79,-1.0589630974523
"1168",79,153432,0.082921,-36.9375,2.15625,52.75,-0.977489750584952,80,-0.895330067210797
"1169",80,153432,0.08035975,-37,2.0625,52.96875,-1.02303760617025,81,-1.1901983911388
"1170",81,153432,0.083241,-37,2,53,-0.971799047300503,82,-1.1962785206633
"1171",82,153432,0.082601,-36.96875,2.125,52.84375,-0.983180453869401,83,-1.0056829324279
"1172",83,153432,0.08100025,-37,2.15625,52.59375,-1.01164730787747,84,-0.854757254368617
"1173",84,153432,0.08420175,-36.96875,2,52.9375,-0.954713599861332,85,-1.11452705576888
"1174",85,153432,0.08132025,-37,2,52.96875,-1.00595660459302,86,-1.20776247739524
"1175",86,153432,0.0819605,-37,2.21875,52.84375,-0.994570752162182,87,-0.984424415304269
"1176",87,153432,0.084522,-37,2.15625,52.65625,-0.949018450714942,88,-0.837475598327241
"1177",88,153432,0.0803595,-37,2,52.9375,-1.02304205203219,89,-1.20217432427383
"1178",89,153432,0.0813205,-37,2.1875,52.875,-1.00595215873108,90,-1.03580196635058
"1179",90,153432,0.08388175,-37,2.21875,52.9375,-0.960404303145781,91,-1.0182787679696
"1180",91,153432,0.08068,-37,2,53,-1.01734245702386,92,-1.24182193038665
"1181",92,153432,0.082601,-37,2.0625,52.9375,-0.983180453869401,93,-1.12766763827738
"1182",93,153432,0.082921,-37,2.0625,52.96875,-0.977489750584952,94,-1.1446505355535
"1183",94,153432,0.081,-37,2.1875,52.9375,-1.01165175373941,95,-1.08684876248006
"1184",95,153432,0.0838815,-36.96875,2.15625,52.8125,-0.960408749007722,96,-0.94291508308881
"1185",96,153432,0.08067975,-37,2,52.96875,-1.0173469028858,97,-1.21915277568802
"1186",97,153432,0.08132,-37,2.21875,52.9375,-1.00596105045496,98,-1.06383551527878
"1187",98,153432,0.08324125,-37,2.3125,52.9375,-0.971794601438562,99,-0.977701434511877
"1188",99,153432,0.0816405,-37,2,53,-1.00026145544663,100,-1.22474092880942
"1189",100,153432,0.08164025,-36.96875,2.21875,53,-1.00026590130857,101,-1.08416875091945
"1190",101,153432,0.08420175,-37,2.15625,52.96875,-0.954713599861332,102,-1.06990675307939
"1191",102,153432,0.08035975,-37,2.15625,52.59375,-1.02303760617025,103,-0.866147552661398
"1192",103,153432,0.0819605,-37,2,52.34375,-0.994570752162182,104,-0.742904613752889
"1193",104,153432,0.0822805,-37,2,52.90625,-0.988880048877733,105,-1.1453387205588
"1194",105,153432,0.07971925,-37,2,52.8125,-1.03442790446303,106,-1.12286577446237
"1195",106,153432,0.08100025,-37,2.28125,52.34375,-1.01164730787747,107,-0.604078274216685
"1196",107,153432,0.08068,-37,2,52.8125,-1.01734245702386,108,-1.1057803270232
"1197",108,153432,0.08132025,-37,2.03125,52.75,-1.00595660459302,109,-1.03172472955437
"1198",109,153432,0.08356125,-37,2.0625,52.84375,-0.966103898154113,110,-1.04257028088036
"1199",110,153432,0.0800395,-37,2.09375,52.125,-1.02873275531664,111,-0.566383781232824
"1200",111,153432,0.082921,-37,2.03125,52.5,-0.977489750584952,112,-0.821869071061705
"1201",112,153432,0.08228075,-37,2,52.75,-0.988875603015792,113,-1.03196627189398
"1202",113,153432,0.0819605,-37,2.03125,52.65625,-0.994570752162182,114,-0.952318075441807
"1203",114,153432,0.086763,-37.03125,2.1875,52.4375,-0.909165744276033,115,-0.640903960381566
"1204",115,153432,0.08035975,-37.0625,2,52.5625,-1.02303760617025,116,-0.968724304353165
"1205",116,153432,0.08260075,-37.03125,2.15625,52.8125,-0.983184899731342,117,-1.00432886648061
"1206",117,153432,0.0816405,-37,2.21875,52.46875,-1.00026145544663,118,-0.718031911861816
"1207",118,153432,0.08132025,-37,2,52.71875,-1.00595660459302,119,-1.02637367291063
"1208",119,153432,0.0838815,-36.78125,2.03125,52.625,-0.960408749007722,120,-0.760250757388147
"1209",120,153432,0.08132025,-37,2.40625,52.59375,-1.00595660459302,121,-0.710486199749501
"1210",121,153432,0.08164025,-37,2.15625,52.875,-1.00026590130857,122,-1.0474382528449
"1211",122,153432,0.08356125,-37,2.0625,52.9375,-0.966103898154113,123,-1.11059108256209
"1212",123,153432,0.079079,-37,2.28125,52.625,-1.04581375689387,124,-0.842307128278261
"1213",124,153432,0.0816405,-37,2.1875,52.40625,-1.00026145544663,125,-0.690007254657497
"1214",125,153432,0.082601,-36.25,2.4375,53,-0.983180453869401,126,-0.501492720378386
"1215",126,153432,0.079399,-36.875,2.53125,52.96875,-1.04012305360942,127,-0.870170414489121
"1216",127,153432,0.08100025,-36.78125,2.78125,52.96875,-1.01164730787747,128,-0.645157868420236
"1217",128,153432,0.08068,-36.96875,2.59375,52.96875,-1.01734245702386,129,-0.87070117907216
"1218",129,153432,0.08035975,-37,2.15625,52.96875,-1.02303760617025,130,-1.13823075938831
"1219",130,153432,0.082601,-37,2.1875,52.90625,-0.983180453869401,131,-1.03570386204947
"1220",131,153432,0.08067975,-37,2.5,52.65625,-1.0173469028858,132,-0.715256067412934
"1221",132,153432,0.0803595,-37,2.21875,52.75,-1.02304205203219,133,-0.944874913492552
"1222",133,153432,0.08196075,-36.90625,2,52.625,-0.994566306300241,134,-0.889006123933857
"1223",134,153432,0.08035975,-37,2.1875,52.875,-1.02303760617025,135,-1.05288741378975
"1224",135,153432,0.08164075,-36.96875,2.5625,52.28125,-1.00025700958469,136,-0.372119063217161
"1225",136,153432,0.08035975,-37.0625,2.46875,52.625,-1.02303760617025,137,-0.754233346721824
"1226",137,153432,0.0797195,-37.03125,2,52.34375,-1.03442345860109,138,-0.80207613652589
"1227",138,153432,0.08196075,-37.0625,2.3125,52.21875,-0.994566306300241,139,-0.517617959148501
"1228",139,153432,0.07907925,-37.03125,2.03125,52.375,-1.04580931103193,140,-0.818813045600472
"1229",140,153432,0.08068,-37,2.09375,52.71875,-1.01734245702386,141,-0.985791893590977
"1230",141,153432,0.0797195,-36.8125,2.3125,52.59375,-1.03442345860109,142,-0.675007787503538
"1231",142,153432,0.08420175,-37,2.4375,52.4375,-0.954713599861332,143,-0.528552648298106
"1232",143,153432,0.082601,-37,2.0625,52.8125,-0.983180453869401,144,-1.03697323603507
"1233",144,153432,0.0790795,-37,2.21875,52.8125,-1.04580486516999,145,-1.0129849277515
"1234",145,153432,0.0816405,-37,2.65625,52.84375,-1.00026145544663,146,-0.747599503753051
"1235",146,153432,0.08100025,-37,2.5625,52.90625,-1.01164730787747,147,-0.856300189055542
"1236",147,153432,0.079079,-36.96875,2.3125,52.90625,-1.04581375689387,148,-1.00972817307252
"1237",148,153432,0.082281,-37,2.34375,52.96875,-0.988871157153851,149,-1.00012904687091
"1238",149,153432,0.0790795,-37,2.78125,52.75,-1.04580486516999,150,-0.655831936127349
"1239",150,153432,0.08003975,-37,2.28125,52.90625,-1.0287283094547,151,-1.02928408588427
"1240",151,153432,0.0790795,-37,2.40625,53,-1.04580486516999,152,-1.04509126761396
"1241",152,153432,0.0793995,-37,2.90625,52.90625,-1.04011416188554,153,-0.694219059978445
"1242",153,153432,0.082601,-37,2.4375,52.9375,-0.983180453869401,154,-0.919797111275382
"1243",154,153432,0.078439,-37,2.21875,53,-1.05719516346277,155,-1.16041682940774
"1244",155,153432,0.08068,-37,2.4375,52.5625,-1.01734245702386,156,-0.681875907702931
"1245",156,153432,0.07907925,-37.25,2.46875,52.125,-1.04580931103193,157,-0.530140340618829
"1246",157,153432,0.0793995,-37.03125,2.09375,52.28125,-1.04011416188554,158,-0.710452006938694
"1247",158,153432,0.0813205,-37.0625,2.03125,52.3125,-1.00595215873108,159,-0.752927508512561
"1248",159,153432,0.079079,-37.28125,2.21875,52.15625,-1.04581375689387,160,-0.710717554710106
"1249",160,153432,0.0813205,-38.625,2.21875,51.1875,-1.00595215873108,161,-0.798683441535334
"1250",161,153432,0.08036,-38.78125,2.53125,51.03125,-1.02303316030831,162,-0.6257650828118
"1251",162,153432,0.081,-38.96875,2.84375,51,-1.01165175373941,163,-0.534397534518533
"1252",163,153432,0.082601,-38.65625,2.75,51.21875,-0.983180453869401,164,-0.523420906982155
"1253",164,153432,0.079399,-38.09375,2.9375,51.5625,-1.04012305360942,165,-0.378099155373894
"1254",165,153432,0.0813205,-38.15625,2.75,51.625,-1.00595215873108,166,-0.53184835778588
"1255",166,153432,0.084842,-38.34375,2.28125,51.40625,-0.943327747430492,167,-0.686259799318295
"1256",167,153432,0.08068025,-38,2.0625,51.84375,-1.01733801116192,168,-0.986451298640628
"1257",168,153432,0.082601,-37.875,2.0625,51.96875,-0.983180453869401,169,-0.965712878254046
"1258",169,153432,0.078759,-37.90625,2.0625,51.96875,-1.05150446017832,170,-1.05335570089706
"1259",170,153432,0.082601,-38,2.0625,51.9375,-0.983180453869401,171,-1.02031454302984
"1260",171,153432,0.0797195,-38,2,52,-1.03442345860109,172,-1.15154983671634
"1261",172,153432,0.08035975,-38,2,52,-1.02303760617025,173,-1.1401639842855
"1262",173,153432,0.08068025,-38,2,52,-1.01733801116192,174,-1.13446438927717
"1263",174,153432,0.078119,-38,2.03125,52,-1.06288586674722,175,-1.16268970094563
"1264",175,153432,0.0816405,-37.96875,2.03125,52,-1.00026145544663,176,-1.08074647331095
"1265",176,153432,0.0790795,-38,2.28125,51.9375,-1.04580486516999,177,-0.961681146912598
"1266",177,153432,0.08003975,-38,2.03125,51.96875,-1.0287283094547,178,-1.10585854309254
"1267",178,153432,0.08100025,-38,2.09375,51.875,-1.01164730787747,179,-0.986111651999928
"1268",179,153432,0.0797195,-38,2,51.96875,-1.03442345860109,180,-1.12887623615576
"1269",180,153432,0.08196075,-37.84375,2.21875,51.90625,-0.994566306300241,181,-0.825819993645491
"1270",181,153432,0.0803595,-38.1875,2.0625,51.46875,-1.02304205203219,182,-0.835985030788529
"1271",182,153432,0.08068,-38.09375,2,51.59375,-1.01734245702386,183,-0.897668476853895
"1272",183,153432,0.0810005,-38,2.09375,51.75,-1.01164286201553,184,-0.895412803895683
"1273",184,153432,0.07971925,-38.0625,2.5,51.46875,-1.03442790446303,185,-0.527580003047351
"1274",185,153432,0.08164075,-38,2.1875,51.65625,-1.00025700958469,186,-0.764038518032616
"1275",186,153432,0.078759,-37.96875,2.0625,51.71875,-1.05150446017832,187,-0.910604529080633
"1276",187,153432,0.08068,-38.0625,2,51.6875,-1.01734245702386,188,-0.946370462201539
"1277",188,153432,0.0816405,-38.15625,2,51.65625,-1.00026145544663,189,-0.964572309065999
"1278",189,153432,0.07971925,-38,2,51.75,-1.03442790446303,190,-0.970165478093678
"1279",190,153432,0.08164075,-38,2,51.84375,-1.00025700958469,191,-1.00401538489706
"1280",191,153432,0.0797195,-38.15625,2,51.65625,-1.03442345860109,192,-0.998734312220459
"1281",192,153432,0.08132025,-38.0625,2.03125,51.53125,-1.00595660459302,193,-0.804294063050986
"1282",193,153432,0.082601,-38.34375,2.15625,51.28125,-0.983180453869401,194,-0.704708279182241
"1283",194,153432,0.07939925,-38.78125,2.46875,51.0625,-1.04011860774748,195,-0.700169218645214
"1284",195,153432,0.0816405,-38.5,2.0625,51.1875,-1.00026145544663,196,-0.802330192498685
"1285",196,153432,0.08132,-38.09375,2.03125,51.71875,-1.00596105045496,197,-0.959658928610466
"1286",197,153432,0.08164075,-38,2.0625,51.90625,-1.00025700958469,198,-1.01471749818455
"1287",198,153432,0.0819605,-38.03125,2.4375,51.5,-0.994570752162182,199,-0.525722722806645
"1288",199,153432,0.0800395,-38,2.0625,51.8125,-1.02873275531664,200,-0.975172442234773
"1289",200,153432,0.08420175,-38,2.0625,52,-0.954713599861332,201,-1.03719489014291
"1290",201,153432,0.081,-37.8125,2.1875,51.8125,-1.01165175373941,202,-0.772888366985676
"1291",202,153432,0.08260075,-38.03125,2.5,51.71875,-0.983184899731342,203,-0.638406986466177
"1292",203,153432,0.08068,-38,2.03125,51.90625,-1.01734245702386,204,-1.04912548954055
"1293",204,153432,0.0816405,-38,2,51.96875,-1.00026145544663,205,-1.0947142330013
"1294",205,153432,0.081,-38.03125,2.1875,51.6875,-1.01165175373941,206,-0.817425679081998
"1295",206,153432,0.08068,-38.03125,2.0625,51.65625,-1.01734245702386,207,-0.869732957473203
"1296",207,153432,0.0819605,-38,2,51.90625,-0.994570752162182,208,-1.04367632859571
"1297",208,153432,0.084842,-38,2,52,-0.943327747430492,209,-1.06045412554574
"1298",209,153432,0.0819605,-38,2.125,51.9375,-0.994570752162182,210,-0.997059753488958
"1299",210,153432,0.0800395,-38.03125,2.21875,51.53125,-1.02873275531664,211,-0.703816133939514
"1300",211,153432,0.0835615,-38.03125,2.125,51.65625,-0.966099452292172,212,-0.783844864907848
"1301",212,153432,0.07971925,-37.875,2.0625,51.90625,-1.03442790446303,213,-0.971613127726531
"1302",213,153432,0.0816405,-38,2,52,-1.00026145544663,214,-1.11738783356188
"1303",214,153432,0.0819605,-37.84375,2.15625,52.03125,-0.994570752162182,215,-0.951163929583396
"1304",215,153432,0.08068,-37.9375,2.125,52,-1.01734245702386,216,-1.0265410268036
"1305",216,153432,0.0822805,-37.75,2.03125,52,-0.988880048877733,217,-0.934133352403429
"1306",217,153432,0.0800395,-37.90625,2.09375,52,-1.02873275531664,218,-1.03593505267912
"1307",218,153432,0.081961,-38,2.21875,51.96875,-0.9945618604383,219,-0.967756830575145
"1308",219,153432,0.0793995,-38.03125,2.03125,51.875,-1.04011416188554,220,-1.06854241017575
"1309",220,153432,0.08164075,-38,2.0625,52,-1.00025700958469,221,-1.08273829986627
"1310",221,153432,0.079399,-38,2.09375,52,-1.04012305360942,222,-1.10528179997418
"1311",222,153432,0.0816405,-38,2.28125,52,-1.00026145544663,223,-0.961484938310385
"1312",223,153432,0.08003975,-37.96875,2.0625,51.96875,-1.0287283094547,224,-1.06921718284161
"1313",224,153432,0.0816405,-38,2,51.96875,-1.00026145544663,225,-1.0947142330013
"1314",225,153432,0.08260075,-37.6875,2.21875,52.15625,-0.983184899731342,226,-0.899233309890743
"1315",226,153432,0.08035975,-38,2.4375,51.9375,-1.02303760617025,227,-0.852301168328693
"1316",227,153432,0.082921,-38,2,51.96875,-0.977489750584952,228,-1.07194252813962
"1317",228,153432,0.08035975,-37.78125,2.03125,52.15625,-1.02303760617025,229,-1.10097772883292
"1318",229,153432,0.082601,-38,2.1875,52,-0.983180453869401,230,-0.996371568483655
"1319",230,153432,0.08067975,-38,2.1875,51.96875,-1.0173469028858,231,-1.00786441693948
"1320",231,153432,0.08164025,-38,2.0625,52,-1.00026590130857,232,-1.08274719159015
"1321",232,153432,0.081,-37.84375,2.15625,52.03125,-1.01165175373941,233,-0.968244931160626
"1322",233,153432,0.0816405,-37.96875,2.8125,51.96875,-1.00026145544663,234,-0.62500927482955
"1323",234,153432,0.0816405,-38,2.15625,52,-1.00026145544663,235,-1.03077511397772
"1324",235,153432,0.0800395,-38,2.0625,52,-1.02873275531664,236,-1.11121404559822
"1325",236,153432,0.08324125,-37.9375,2.21875,52.03125,-0.971794601438562,237,-0.951699140028375
"1326",237,153432,0.08132025,-38,2.03125,51.9375,-1.00595660459302,238,-1.06041323767029
"1327",238,153432,0.08035975,-38,2.125,52.0625,-1.02303760617025,239,-1.11622100973932
"1328",239,153432,0.0816405,-37.75,2.125,51.6875,-1.00026145544663,240,-0.666811121616077
"1329",240,153432,0.08067975,-38.1875,2.03125,51.5,-1.0173469028858,241,-0.870286026119548
"1330",241,153432,0.0816405,-38.1875,2.125,51.21875,-1.00026145544663,242,-0.597170541884702
"1331",242,153432,0.08035975,-38.0625,2.0625,51.5625,-1.02303760617025,243,-0.826726121271959
"1332",243,153432,0.082601,-38,2,51.65625,-0.983180453869401,244,-0.85089722581832
"1333",244,153432,0.0800395,-38,2.21875,51.5625,-1.02873275531664,245,-0.707170918166008
"1334",245,153432,0.0819605,-38.03125,2.0625,51.34375,-0.994570752162182,246,-0.620225247005773
"1335",246,153432,0.08164025,-38.1875,2.09375,51.34375,-1.00026590130857,247,-0.705191933905779
"1336",247,153432,0.0813205,-37.65625,2,52,-1.00595215873108,248,-0.910571557171343
"1337",248,153432,0.08164025,-38,2.15625,51.90625,-1.00026590130857,249,-0.962758758157939
